subj,session,trial,rt,object_response,category,condition,imagename,
gauss_4_sup_RN50_gauss_0_for_60_epoch25,1,1,NaN,cat,airplane,0,airplane1-bicycle2.png,
gauss_4_sup_RN50_gauss_0_for_60_epoch25,1,2,NaN,oven,airplane,0,airplane1-chair2.png,
gauss_4_sup_RN50_gauss_0_for_60_epoch25,1,3,NaN,knife,airplane,0,airplane1-clock1.png,
gauss_4_sup_RN50_gauss_0_for_60_epoch25,1,4,NaN,cat,airplane,0,airplane1-elephant1.png,
gauss_4_sup_RN50_gauss_0_for_60_epoch25,1,5,NaN,knife,airplane,0,airplane10-airplane1.png,
gauss_4_sup_RN50_gauss_0_for_60_epoch25,1,6,NaN,elephant,airplane,0,airplane10-bear3.png,
gauss_4_sup_RN50_gauss_0_for_60_epoch25,1,7,NaN,bottle,airplane,0,airplane10-boat3.png,
gauss_4_sup_RN50_gauss_0_for_60_epoch25,1,8,NaN,bottle,airplane,0,airplane10-car3.png,
gauss_4_sup_RN50_gauss_0_for_60_epoch25,1,9,NaN,cat,airplane,0,airplane10-cat2.png,
gauss_4_sup_RN50_gauss_0_for_60_epoch25,1,10,NaN,bottle,airplane,0,airplane10-dog3.png,
gauss_4_sup_RN50_gauss_0_for_60_epoch25,1,11,NaN,cat,airplane,0,airplane10-elephant1.png,
gauss_4_sup_RN50_gauss_0_for_60_epoch25,1,12,NaN,bottle,airplane,0,airplane10-knife3.png,
gauss_4_sup_RN50_gauss_0_for_60_epoch25,1,13,NaN,airplane,airplane,0,airplane10-oven2.png,
gauss_4_sup_RN50_gauss_0_for_60_epoch25,1,14,NaN,bottle,airplane,0,airplane10-truck1.png,
gauss_4_sup_RN50_gauss_0_for_60_epoch25,1,15,NaN,dog,airplane,0,airplane2-bear1.png,
gauss_4_sup_RN50_gauss_0_for_60_epoch25,1,16,NaN,bottle,airplane,0,airplane2-bicycle1.png,
gauss_4_sup_RN50_gauss_0_for_60_epoch25,1,17,NaN,cat,airplane,0,airplane2-bird3.png,
gauss_4_sup_RN50_gauss_0_for_60_epoch25,1,18,NaN,oven,airplane,0,airplane2-bottle1.png,
gauss_4_sup_RN50_gauss_0_for_60_epoch25,1,19,NaN,dog,airplane,0,airplane2-cat1.png,
gauss_4_sup_RN50_gauss_0_for_60_epoch25,1,20,NaN,dog,airplane,0,airplane2-dog1.png,
gauss_4_sup_RN50_gauss_0_for_60_epoch25,1,21,NaN,bottle,airplane,0,airplane3-airplane2.png,
gauss_4_sup_RN50_gauss_0_for_60_epoch25,1,22,NaN,bottle,airplane,0,airplane3-car1.png,
gauss_4_sup_RN50_gauss_0_for_60_epoch25,1,23,NaN,cat,airplane,0,airplane3-cat1.png,
gauss_4_sup_RN50_gauss_0_for_60_epoch25,1,24,NaN,bottle,airplane,0,airplane3-chair3.png,
gauss_4_sup_RN50_gauss_0_for_60_epoch25,1,25,NaN,bottle,airplane,0,airplane3-clock1.png,
gauss_4_sup_RN50_gauss_0_for_60_epoch25,1,26,NaN,elephant,airplane,0,airplane3-dog1.png,
gauss_4_sup_RN50_gauss_0_for_60_epoch25,1,27,NaN,elephant,airplane,0,airplane3-elephant1.png,
gauss_4_sup_RN50_gauss_0_for_60_epoch25,1,28,NaN,airplane,airplane,0,airplane3-keyboard2.png,
gauss_4_sup_RN50_gauss_0_for_60_epoch25,1,29,NaN,bird,airplane,0,airplane3-oven1.png,
gauss_4_sup_RN50_gauss_0_for_60_epoch25,1,30,NaN,knife,airplane,0,airplane4-airplane1.png,
gauss_4_sup_RN50_gauss_0_for_60_epoch25,1,31,NaN,elephant,airplane,0,airplane4-bear3.png,
gauss_4_sup_RN50_gauss_0_for_60_epoch25,1,32,NaN,bird,airplane,0,airplane4-bicycle2.png,
gauss_4_sup_RN50_gauss_0_for_60_epoch25,1,33,NaN,knife,airplane,0,airplane4-bird3.png,
gauss_4_sup_RN50_gauss_0_for_60_epoch25,1,34,NaN,bottle,airplane,0,airplane4-boat3.png,
gauss_4_sup_RN50_gauss_0_for_60_epoch25,1,35,NaN,chair,airplane,0,airplane4-bottle1.png,
gauss_4_sup_RN50_gauss_0_for_60_epoch25,1,36,NaN,bottle,airplane,0,airplane4-car1.png,
gauss_4_sup_RN50_gauss_0_for_60_epoch25,1,37,NaN,bottle,airplane,0,airplane4-cat3.png,
gauss_4_sup_RN50_gauss_0_for_60_epoch25,1,38,NaN,dog,airplane,0,airplane4-dog2.png,
gauss_4_sup_RN50_gauss_0_for_60_epoch25,1,39,NaN,knife,airplane,0,airplane4-elephant1.png,
gauss_4_sup_RN50_gauss_0_for_60_epoch25,1,40,NaN,knife,airplane,0,airplane4-keyboard3.png,
gauss_4_sup_RN50_gauss_0_for_60_epoch25,1,41,NaN,knife,airplane,0,airplane4-knife1.png,
gauss_4_sup_RN50_gauss_0_for_60_epoch25,1,42,NaN,bottle,airplane,0,airplane4-truck2.png,
gauss_4_sup_RN50_gauss_0_for_60_epoch25,1,43,NaN,cat,airplane,0,airplane5-bear2.png,
gauss_4_sup_RN50_gauss_0_for_60_epoch25,1,44,NaN,bottle,airplane,0,airplane5-bicycle1.png,
gauss_4_sup_RN50_gauss_0_for_60_epoch25,1,45,NaN,cat,airplane,0,airplane5-bird2.png,
gauss_4_sup_RN50_gauss_0_for_60_epoch25,1,46,NaN,airplane,airplane,0,airplane5-boat3.png,
gauss_4_sup_RN50_gauss_0_for_60_epoch25,1,47,NaN,bottle,airplane,0,airplane5-bottle3.png,
gauss_4_sup_RN50_gauss_0_for_60_epoch25,1,48,NaN,bear,airplane,0,airplane5-chair3.png,
gauss_4_sup_RN50_gauss_0_for_60_epoch25,1,49,NaN,cat,airplane,0,airplane5-dog3.png,
gauss_4_sup_RN50_gauss_0_for_60_epoch25,1,50,NaN,knife,airplane,0,airplane5-knife1.png,
gauss_4_sup_RN50_gauss_0_for_60_epoch25,1,51,NaN,airplane,airplane,0,airplane5-oven3.png,
gauss_4_sup_RN50_gauss_0_for_60_epoch25,1,52,NaN,dog,airplane,0,airplane6-bear3.png,
gauss_4_sup_RN50_gauss_0_for_60_epoch25,1,53,NaN,bottle,airplane,0,airplane6-bottle2.png,
gauss_4_sup_RN50_gauss_0_for_60_epoch25,1,54,NaN,bear,airplane,0,airplane6-chair3.png,
gauss_4_sup_RN50_gauss_0_for_60_epoch25,1,55,NaN,knife,airplane,0,airplane6-keyboard3.png,
gauss_4_sup_RN50_gauss_0_for_60_epoch25,1,56,NaN,knife,airplane,0,airplane6-knife1.png,
gauss_4_sup_RN50_gauss_0_for_60_epoch25,1,57,NaN,cat,airplane,0,airplane7-airplane3.png,
gauss_4_sup_RN50_gauss_0_for_60_epoch25,1,58,NaN,bottle,airplane,0,airplane7-bird3.png,
gauss_4_sup_RN50_gauss_0_for_60_epoch25,1,59,NaN,chair,airplane,0,airplane7-boat2.png,
gauss_4_sup_RN50_gauss_0_for_60_epoch25,1,60,NaN,bottle,airplane,0,airplane7-bottle3.png,
gauss_4_sup_RN50_gauss_0_for_60_epoch25,1,61,NaN,bottle,airplane,0,airplane7-car1.png,
gauss_4_sup_RN50_gauss_0_for_60_epoch25,1,62,NaN,bottle,airplane,0,airplane7-cat3.png,
gauss_4_sup_RN50_gauss_0_for_60_epoch25,1,63,NaN,keyboard,airplane,0,airplane7-clock3.png,
gauss_4_sup_RN50_gauss_0_for_60_epoch25,1,64,NaN,knife,airplane,0,airplane7-keyboard1.png,
gauss_4_sup_RN50_gauss_0_for_60_epoch25,1,65,NaN,bottle,airplane,0,airplane7-truck1.png,
gauss_4_sup_RN50_gauss_0_for_60_epoch25,1,66,NaN,knife,airplane,0,airplane8-bicycle3.png,
gauss_4_sup_RN50_gauss_0_for_60_epoch25,1,67,NaN,bottle,airplane,0,airplane8-bird1.png,
gauss_4_sup_RN50_gauss_0_for_60_epoch25,1,68,NaN,clock,airplane,0,airplane8-chair1.png,
gauss_4_sup_RN50_gauss_0_for_60_epoch25,1,69,NaN,elephant,airplane,0,airplane8-clock2.png,
gauss_4_sup_RN50_gauss_0_for_60_epoch25,1,70,NaN,elephant,airplane,0,airplane8-elephant3.png,
gauss_4_sup_RN50_gauss_0_for_60_epoch25,1,71,NaN,bottle,airplane,0,airplane8-oven2.png,
gauss_4_sup_RN50_gauss_0_for_60_epoch25,1,72,NaN,bottle,airplane,0,airplane8-truck3.png,
gauss_4_sup_RN50_gauss_0_for_60_epoch25,1,73,NaN,bottle,airplane,0,airplane9-airplane2.png,
gauss_4_sup_RN50_gauss_0_for_60_epoch25,1,74,NaN,chair,airplane,0,airplane9-boat1.png,
gauss_4_sup_RN50_gauss_0_for_60_epoch25,1,75,NaN,chair,airplane,0,airplane9-car2.png,
gauss_4_sup_RN50_gauss_0_for_60_epoch25,1,76,NaN,knife,airplane,0,airplane9-clock1.png,
gauss_4_sup_RN50_gauss_0_for_60_epoch25,1,77,NaN,knife,airplane,0,airplane9-keyboard2.png,
gauss_4_sup_RN50_gauss_0_for_60_epoch25,1,78,NaN,bottle,airplane,0,airplane9-knife3.png,
gauss_4_sup_RN50_gauss_0_for_60_epoch25,1,79,NaN,keyboard,airplane,0,airplane9-oven2.png,
gauss_4_sup_RN50_gauss_0_for_60_epoch25,1,80,NaN,chair,airplane,0,airplane9-truck1.png,
gauss_4_sup_RN50_gauss_0_for_60_epoch25,1,81,NaN,dog,bear,0,bear1-airplane3.png,
gauss_4_sup_RN50_gauss_0_for_60_epoch25,1,82,NaN,cat,bear,0,bear1-bear3.png,
gauss_4_sup_RN50_gauss_0_for_60_epoch25,1,83,NaN,elephant,bear,0,bear1-bicycle3.png,
gauss_4_sup_RN50_gauss_0_for_60_epoch25,1,84,NaN,dog,bear,0,bear1-bird2.png,
gauss_4_sup_RN50_gauss_0_for_60_epoch25,1,85,NaN,oven,bear,0,bear1-chair2.png,
gauss_4_sup_RN50_gauss_0_for_60_epoch25,1,86,NaN,dog,bear,0,bear1-clock2.png,
gauss_4_sup_RN50_gauss_0_for_60_epoch25,1,87,NaN,elephant,bear,0,bear1-elephant1.png,
gauss_4_sup_RN50_gauss_0_for_60_epoch25,1,88,NaN,elephant,bear,0,bear10-bear2.png,
gauss_4_sup_RN50_gauss_0_for_60_epoch25,1,89,NaN,bear,bear,0,bear10-bottle1.png,
gauss_4_sup_RN50_gauss_0_for_60_epoch25,1,90,NaN,boat,bear,0,bear10-car2.png,
gauss_4_sup_RN50_gauss_0_for_60_epoch25,1,91,NaN,cat,bear,0,bear10-cat2.png,
gauss_4_sup_RN50_gauss_0_for_60_epoch25,1,92,NaN,oven,bear,0,bear10-chair2.png,
gauss_4_sup_RN50_gauss_0_for_60_epoch25,1,93,NaN,bottle,bear,0,bear10-clock1.png,
gauss_4_sup_RN50_gauss_0_for_60_epoch25,1,94,NaN,elephant,bear,0,bear10-elephant1.png,
gauss_4_sup_RN50_gauss_0_for_60_epoch25,1,95,NaN,bottle,bear,0,bear10-keyboard3.png,
gauss_4_sup_RN50_gauss_0_for_60_epoch25,1,96,NaN,bottle,bear,0,bear10-knife2.png,
gauss_4_sup_RN50_gauss_0_for_60_epoch25,1,97,NaN,bottle,bear,0,bear10-oven1.png,
gauss_4_sup_RN50_gauss_0_for_60_epoch25,1,98,NaN,bottle,bear,0,bear10-truck1.png,
gauss_4_sup_RN50_gauss_0_for_60_epoch25,1,99,NaN,dog,bear,0,bear2-airplane1.png,
gauss_4_sup_RN50_gauss_0_for_60_epoch25,1,100,NaN,bottle,bear,0,bear2-bird3.png,
gauss_4_sup_RN50_gauss_0_for_60_epoch25,1,101,NaN,bottle,bear,0,bear2-car2.png,
gauss_4_sup_RN50_gauss_0_for_60_epoch25,1,102,NaN,cat,bear,0,bear2-cat2.png,
gauss_4_sup_RN50_gauss_0_for_60_epoch25,1,103,NaN,dog,bear,0,bear2-dog1.png,
gauss_4_sup_RN50_gauss_0_for_60_epoch25,1,104,NaN,elephant,bear,0,bear2-elephant1.png,
gauss_4_sup_RN50_gauss_0_for_60_epoch25,1,105,NaN,bottle,bear,0,bear2-keyboard2.png,
gauss_4_sup_RN50_gauss_0_for_60_epoch25,1,106,NaN,bottle,bear,0,bear2-knife2.png,
gauss_4_sup_RN50_gauss_0_for_60_epoch25,1,107,NaN,bottle,bear,0,bear2-oven1.png,
gauss_4_sup_RN50_gauss_0_for_60_epoch25,1,108,NaN,dog,bear,0,bear3-airplane1.png,
gauss_4_sup_RN50_gauss_0_for_60_epoch25,1,109,NaN,cat,bear,0,bear3-bicycle2.png,
gauss_4_sup_RN50_gauss_0_for_60_epoch25,1,110,NaN,bottle,bear,0,bear3-bird3.png,
gauss_4_sup_RN50_gauss_0_for_60_epoch25,1,111,NaN,car,bear,0,bear3-car2.png,
gauss_4_sup_RN50_gauss_0_for_60_epoch25,1,112,NaN,dog,bear,0,bear3-cat1.png,
gauss_4_sup_RN50_gauss_0_for_60_epoch25,1,113,NaN,oven,bear,0,bear3-chair2.png,
gauss_4_sup_RN50_gauss_0_for_60_epoch25,1,114,NaN,dog,bear,0,bear3-dog3.png,
gauss_4_sup_RN50_gauss_0_for_60_epoch25,1,115,NaN,keyboard,bear,0,bear3-keyboard2.png,
gauss_4_sup_RN50_gauss_0_for_60_epoch25,1,116,NaN,bottle,bear,0,bear3-truck3.png,
gauss_4_sup_RN50_gauss_0_for_60_epoch25,1,117,NaN,knife,bear,0,bear4-boat2.png,
gauss_4_sup_RN50_gauss_0_for_60_epoch25,1,118,NaN,bottle,bear,0,bear4-car3.png,
gauss_4_sup_RN50_gauss_0_for_60_epoch25,1,119,NaN,cat,bear,0,bear4-cat3.png,
gauss_4_sup_RN50_gauss_0_for_60_epoch25,1,120,NaN,elephant,bear,0,bear4-clock3.png,
gauss_4_sup_RN50_gauss_0_for_60_epoch25,1,121,NaN,dog,bear,0,bear4-elephant2.png,
gauss_4_sup_RN50_gauss_0_for_60_epoch25,1,122,NaN,bottle,bear,0,bear4-keyboard3.png,
gauss_4_sup_RN50_gauss_0_for_60_epoch25,1,123,NaN,dog,bear,0,bear4-knife1.png,
gauss_4_sup_RN50_gauss_0_for_60_epoch25,1,124,NaN,airplane,bear,0,bear4-oven2.png,
gauss_4_sup_RN50_gauss_0_for_60_epoch25,1,125,NaN,bottle,bear,0,bear4-truck3.png,
gauss_4_sup_RN50_gauss_0_for_60_epoch25,1,126,NaN,dog,bear,0,bear5-airplane3.png,
gauss_4_sup_RN50_gauss_0_for_60_epoch25,1,127,NaN,dog,bear,0,bear5-bicycle3.png,
gauss_4_sup_RN50_gauss_0_for_60_epoch25,1,128,NaN,bear,bear,0,bear5-bird1.png,
gauss_4_sup_RN50_gauss_0_for_60_epoch25,1,129,NaN,oven,bear,0,bear5-boat2.png,
gauss_4_sup_RN50_gauss_0_for_60_epoch25,1,130,NaN,bear,bear,0,bear5-bottle1.png,
gauss_4_sup_RN50_gauss_0_for_60_epoch25,1,131,NaN,clock,bear,0,bear5-chair1.png,
gauss_4_sup_RN50_gauss_0_for_60_epoch25,1,132,NaN,elephant,bear,0,bear5-oven3.png,
gauss_4_sup_RN50_gauss_0_for_60_epoch25,1,133,NaN,dog,bear,0,bear6-bear1.png,
gauss_4_sup_RN50_gauss_0_for_60_epoch25,1,134,NaN,dog,bear,0,bear6-bird2.png,
gauss_4_sup_RN50_gauss_0_for_60_epoch25,1,135,NaN,dog,bear,0,bear6-boat3.png,
gauss_4_sup_RN50_gauss_0_for_60_epoch25,1,136,NaN,bear,bear,0,bear6-bottle3.png,
gauss_4_sup_RN50_gauss_0_for_60_epoch25,1,137,NaN,dog,bear,0,bear6-car2.png,
gauss_4_sup_RN50_gauss_0_for_60_epoch25,1,138,NaN,cat,bear,0,bear6-cat3.png,
gauss_4_sup_RN50_gauss_0_for_60_epoch25,1,139,NaN,bird,bear,0,bear6-chair1.png,
gauss_4_sup_RN50_gauss_0_for_60_epoch25,1,140,NaN,bottle,bear,0,bear6-clock1.png,
gauss_4_sup_RN50_gauss_0_for_60_epoch25,1,141,NaN,dog,bear,0,bear7-bear2.png,
gauss_4_sup_RN50_gauss_0_for_60_epoch25,1,142,NaN,cat,bear,0,bear7-bicycle2.png,
gauss_4_sup_RN50_gauss_0_for_60_epoch25,1,143,NaN,bottle,bear,0,bear7-clock1.png,
gauss_4_sup_RN50_gauss_0_for_60_epoch25,1,144,NaN,dog,bear,0,bear7-dog3.png,
gauss_4_sup_RN50_gauss_0_for_60_epoch25,1,145,NaN,elephant,bear,0,bear7-oven3.png,
gauss_4_sup_RN50_gauss_0_for_60_epoch25,1,146,NaN,bird,bear,0,bear7-truck1.png,
gauss_4_sup_RN50_gauss_0_for_60_epoch25,1,147,NaN,cat,bear,0,bear8-airplane1.png,
gauss_4_sup_RN50_gauss_0_for_60_epoch25,1,148,NaN,dog,bear,0,bear8-bear1.png,
gauss_4_sup_RN50_gauss_0_for_60_epoch25,1,149,NaN,dog,bear,0,bear8-bicycle3.png,
gauss_4_sup_RN50_gauss_0_for_60_epoch25,1,150,NaN,bottle,bear,0,bear8-boat2.png,
gauss_4_sup_RN50_gauss_0_for_60_epoch25,1,151,NaN,bear,bear,0,bear8-bottle1.png,
gauss_4_sup_RN50_gauss_0_for_60_epoch25,1,152,NaN,bear,bear,0,bear8-dog1.png,
gauss_4_sup_RN50_gauss_0_for_60_epoch25,1,153,NaN,elephant,bear,0,bear8-elephant2.png,
gauss_4_sup_RN50_gauss_0_for_60_epoch25,1,154,NaN,elephant,bear,0,bear8-knife3.png,
gauss_4_sup_RN50_gauss_0_for_60_epoch25,1,155,NaN,bottle,bear,0,bear8-truck3.png,
gauss_4_sup_RN50_gauss_0_for_60_epoch25,1,156,NaN,bicycle,bear,0,bear9-boat2.png,
gauss_4_sup_RN50_gauss_0_for_60_epoch25,1,157,NaN,dog,bear,0,bear9-bottle2.png,
gauss_4_sup_RN50_gauss_0_for_60_epoch25,1,158,NaN,dog,bear,0,bear9-dog1.png,
gauss_4_sup_RN50_gauss_0_for_60_epoch25,1,159,NaN,bottle,bear,0,bear9-keyboard3.png,
gauss_4_sup_RN50_gauss_0_for_60_epoch25,1,160,NaN,bottle,bear,0,bear9-knife2.png,
gauss_4_sup_RN50_gauss_0_for_60_epoch25,1,161,NaN,bottle,bicycle,0,bicycle1-airplane2.png,
gauss_4_sup_RN50_gauss_0_for_60_epoch25,1,162,NaN,dog,bicycle,0,bicycle1-bear1.png,
gauss_4_sup_RN50_gauss_0_for_60_epoch25,1,163,NaN,bottle,bicycle,0,bicycle1-bicycle3.png,
gauss_4_sup_RN50_gauss_0_for_60_epoch25,1,164,NaN,dog,bicycle,0,bicycle1-bird1.png,
gauss_4_sup_RN50_gauss_0_for_60_epoch25,1,165,NaN,bottle,bicycle,0,bicycle1-boat3.png,
gauss_4_sup_RN50_gauss_0_for_60_epoch25,1,166,NaN,bottle,bicycle,0,bicycle1-bottle3.png,
gauss_4_sup_RN50_gauss_0_for_60_epoch25,1,167,NaN,bottle,bicycle,0,bicycle1-chair1.png,
gauss_4_sup_RN50_gauss_0_for_60_epoch25,1,168,NaN,clock,bicycle,0,bicycle1-clock3.png,
gauss_4_sup_RN50_gauss_0_for_60_epoch25,1,169,NaN,dog,bicycle,0,bicycle1-dog3.png,
gauss_4_sup_RN50_gauss_0_for_60_epoch25,1,170,NaN,dog,bicycle,0,bicycle1-elephant2.png,
gauss_4_sup_RN50_gauss_0_for_60_epoch25,1,171,NaN,bottle,bicycle,0,bicycle1-knife3.png,
gauss_4_sup_RN50_gauss_0_for_60_epoch25,1,172,NaN,bottle,bicycle,0,bicycle1-oven1.png,
gauss_4_sup_RN50_gauss_0_for_60_epoch25,1,173,NaN,bottle,bicycle,0,bicycle1-truck1.png,
gauss_4_sup_RN50_gauss_0_for_60_epoch25,1,174,NaN,bottle,bicycle,0,bicycle10-airplane2.png,
gauss_4_sup_RN50_gauss_0_for_60_epoch25,1,175,NaN,bottle,bicycle,0,bicycle10-boat3.png,
gauss_4_sup_RN50_gauss_0_for_60_epoch25,1,176,NaN,keyboard,bicycle,0,bicycle10-clock2.png,
gauss_4_sup_RN50_gauss_0_for_60_epoch25,1,177,NaN,bottle,bicycle,0,bicycle10-dog3.png,
gauss_4_sup_RN50_gauss_0_for_60_epoch25,1,178,NaN,dog,bicycle,0,bicycle10-elephant2.png,
gauss_4_sup_RN50_gauss_0_for_60_epoch25,1,179,NaN,bicycle,bicycle,0,bicycle2-bicycle1.png,
gauss_4_sup_RN50_gauss_0_for_60_epoch25,1,180,NaN,knife,bicycle,0,bicycle2-bird3.png,
gauss_4_sup_RN50_gauss_0_for_60_epoch25,1,181,NaN,bicycle,bicycle,0,bicycle2-bottle1.png,
gauss_4_sup_RN50_gauss_0_for_60_epoch25,1,182,NaN,car,bicycle,0,bicycle2-car2.png,
gauss_4_sup_RN50_gauss_0_for_60_epoch25,1,183,NaN,dog,bicycle,0,bicycle2-dog1.png,
gauss_4_sup_RN50_gauss_0_for_60_epoch25,1,184,NaN,dog,bicycle,0,bicycle2-keyboard2.png,
gauss_4_sup_RN50_gauss_0_for_60_epoch25,1,185,NaN,knife,bicycle,0,bicycle2-knife2.png,
gauss_4_sup_RN50_gauss_0_for_60_epoch25,1,186,NaN,dog,bicycle,0,bicycle3-bird1.png,
gauss_4_sup_RN50_gauss_0_for_60_epoch25,1,187,NaN,dog,bicycle,0,bicycle3-elephant2.png,
gauss_4_sup_RN50_gauss_0_for_60_epoch25,1,188,NaN,dog,bicycle,0,bicycle3-keyboard1.png,
gauss_4_sup_RN50_gauss_0_for_60_epoch25,1,189,NaN,bottle,bicycle,0,bicycle3-oven3.png,
gauss_4_sup_RN50_gauss_0_for_60_epoch25,1,190,NaN,bottle,bicycle,0,bicycle3-truck3.png,
gauss_4_sup_RN50_gauss_0_for_60_epoch25,1,191,NaN,bicycle,bicycle,0,bicycle4-airplane1.png,
gauss_4_sup_RN50_gauss_0_for_60_epoch25,1,192,NaN,knife,bicycle,0,bicycle4-bicycle3.png,
gauss_4_sup_RN50_gauss_0_for_60_epoch25,1,193,NaN,bottle,bicycle,0,bicycle4-boat1.png,
gauss_4_sup_RN50_gauss_0_for_60_epoch25,1,194,NaN,chair,bicycle,0,bicycle4-bottle1.png,
gauss_4_sup_RN50_gauss_0_for_60_epoch25,1,195,NaN,bicycle,bicycle,0,bicycle4-car2.png,
gauss_4_sup_RN50_gauss_0_for_60_epoch25,1,196,NaN,dog,bicycle,0,bicycle4-cat1.png,
gauss_4_sup_RN50_gauss_0_for_60_epoch25,1,197,NaN,knife,bicycle,0,bicycle4-chair2.png,
gauss_4_sup_RN50_gauss_0_for_60_epoch25,1,198,NaN,keyboard,bicycle,0,bicycle4-clock3.png,
gauss_4_sup_RN50_gauss_0_for_60_epoch25,1,199,NaN,bottle,bicycle,0,bicycle4-keyboard3.png,
gauss_4_sup_RN50_gauss_0_for_60_epoch25,1,200,NaN,cat,bicycle,0,bicycle4-knife3.png,
gauss_4_sup_RN50_gauss_0_for_60_epoch25,1,201,NaN,cat,bicycle,0,bicycle4-oven3.png,
gauss_4_sup_RN50_gauss_0_for_60_epoch25,1,202,NaN,bottle,bicycle,0,bicycle4-truck3.png,
gauss_4_sup_RN50_gauss_0_for_60_epoch25,1,203,NaN,cat,bicycle,0,bicycle5-bear1.png,
gauss_4_sup_RN50_gauss_0_for_60_epoch25,1,204,NaN,bottle,bicycle,0,bicycle5-bottle3.png,
gauss_4_sup_RN50_gauss_0_for_60_epoch25,1,205,NaN,bottle,bicycle,0,bicycle5-car3.png,
gauss_4_sup_RN50_gauss_0_for_60_epoch25,1,206,NaN,dog,bicycle,0,bicycle5-cat1.png,
gauss_4_sup_RN50_gauss_0_for_60_epoch25,1,207,NaN,oven,bicycle,0,bicycle5-chair2.png,
gauss_4_sup_RN50_gauss_0_for_60_epoch25,1,208,NaN,oven,bicycle,0,bicycle5-dog2.png,
gauss_4_sup_RN50_gauss_0_for_60_epoch25,1,209,NaN,cat,bicycle,0,bicycle5-elephant1.png,
gauss_4_sup_RN50_gauss_0_for_60_epoch25,1,210,NaN,dog,bicycle,0,bicycle5-keyboard3.png,
gauss_4_sup_RN50_gauss_0_for_60_epoch25,1,211,NaN,bottle,bicycle,0,bicycle5-oven3.png,
gauss_4_sup_RN50_gauss_0_for_60_epoch25,1,212,NaN,bottle,bicycle,0,bicycle6-airplane2.png,
gauss_4_sup_RN50_gauss_0_for_60_epoch25,1,213,NaN,knife,bicycle,0,bicycle6-bicycle3.png,
gauss_4_sup_RN50_gauss_0_for_60_epoch25,1,214,NaN,bottle,bicycle,0,bicycle6-boat2.png,
gauss_4_sup_RN50_gauss_0_for_60_epoch25,1,215,NaN,bottle,bicycle,0,bicycle6-car2.png,
gauss_4_sup_RN50_gauss_0_for_60_epoch25,1,216,NaN,dog,bicycle,0,bicycle6-cat1.png,
gauss_4_sup_RN50_gauss_0_for_60_epoch25,1,217,NaN,oven,bicycle,0,bicycle6-dog2.png,
gauss_4_sup_RN50_gauss_0_for_60_epoch25,1,218,NaN,dog,bicycle,0,bicycle7-bear2.png,
gauss_4_sup_RN50_gauss_0_for_60_epoch25,1,219,NaN,bicycle,bicycle,0,bicycle7-bicycle2.png,
gauss_4_sup_RN50_gauss_0_for_60_epoch25,1,220,NaN,dog,bicycle,0,bicycle7-cat1.png,
gauss_4_sup_RN50_gauss_0_for_60_epoch25,1,221,NaN,cat,bicycle,0,bicycle7-clock3.png,
gauss_4_sup_RN50_gauss_0_for_60_epoch25,1,222,NaN,dog,bicycle,0,bicycle7-elephant2.png,
gauss_4_sup_RN50_gauss_0_for_60_epoch25,1,223,NaN,bottle,bicycle,0,bicycle7-knife2.png,
gauss_4_sup_RN50_gauss_0_for_60_epoch25,1,224,NaN,keyboard,bicycle,0,bicycle7-oven1.png,
gauss_4_sup_RN50_gauss_0_for_60_epoch25,1,225,NaN,bottle,bicycle,0,bicycle7-truck3.png,
gauss_4_sup_RN50_gauss_0_for_60_epoch25,1,226,NaN,cat,bicycle,0,bicycle8-bear2.png,
gauss_4_sup_RN50_gauss_0_for_60_epoch25,1,227,NaN,cat,bicycle,0,bicycle8-bird2.png,
gauss_4_sup_RN50_gauss_0_for_60_epoch25,1,228,NaN,bicycle,bicycle,0,bicycle8-boat1.png,
gauss_4_sup_RN50_gauss_0_for_60_epoch25,1,229,NaN,oven,bicycle,0,bicycle8-chair2.png,
gauss_4_sup_RN50_gauss_0_for_60_epoch25,1,230,NaN,cat,bicycle,0,bicycle8-clock3.png,
gauss_4_sup_RN50_gauss_0_for_60_epoch25,1,231,NaN,bottle,bicycle,0,bicycle8-truck1.png,
gauss_4_sup_RN50_gauss_0_for_60_epoch25,1,232,NaN,bicycle,bicycle,0,bicycle9-airplane2.png,
gauss_4_sup_RN50_gauss_0_for_60_epoch25,1,233,NaN,elephant,bicycle,0,bicycle9-bear1.png,
gauss_4_sup_RN50_gauss_0_for_60_epoch25,1,234,NaN,bottle,bicycle,0,bicycle9-bird3.png,
gauss_4_sup_RN50_gauss_0_for_60_epoch25,1,235,NaN,bicycle,bicycle,0,bicycle9-bottle1.png,
gauss_4_sup_RN50_gauss_0_for_60_epoch25,1,236,NaN,bottle,bicycle,0,bicycle9-car1.png,
gauss_4_sup_RN50_gauss_0_for_60_epoch25,1,237,NaN,cat,bicycle,0,bicycle9-cat3.png,
gauss_4_sup_RN50_gauss_0_for_60_epoch25,1,238,NaN,bottle,bicycle,0,bicycle9-chair1.png,
gauss_4_sup_RN50_gauss_0_for_60_epoch25,1,239,NaN,bottle,bicycle,0,bicycle9-keyboard3.png,
gauss_4_sup_RN50_gauss_0_for_60_epoch25,1,240,NaN,bottle,bicycle,0,bicycle9-knife3.png,
gauss_4_sup_RN50_gauss_0_for_60_epoch25,1,241,NaN,bottle,bird,0,bird1-airplane2.png,
gauss_4_sup_RN50_gauss_0_for_60_epoch25,1,242,NaN,cat,bird,0,bird1-bear1.png,
gauss_4_sup_RN50_gauss_0_for_60_epoch25,1,243,NaN,bottle,bird,0,bird1-bicycle2.png,
gauss_4_sup_RN50_gauss_0_for_60_epoch25,1,244,NaN,bottle,bird,0,bird1-boat1.png,
gauss_4_sup_RN50_gauss_0_for_60_epoch25,1,245,NaN,oven,bird,0,bird1-chair2.png,
gauss_4_sup_RN50_gauss_0_for_60_epoch25,1,246,NaN,dog,bird,0,bird1-clock3.png,
gauss_4_sup_RN50_gauss_0_for_60_epoch25,1,247,NaN,dog,bird,0,bird1-elephant2.png,
gauss_4_sup_RN50_gauss_0_for_60_epoch25,1,248,NaN,bottle,bird,0,bird1-keyboard3.png,
gauss_4_sup_RN50_gauss_0_for_60_epoch25,1,249,NaN,dog,bird,0,bird1-knife3.png,
gauss_4_sup_RN50_gauss_0_for_60_epoch25,1,250,NaN,bottle,bird,0,bird1-oven1.png,
gauss_4_sup_RN50_gauss_0_for_60_epoch25,1,251,NaN,bottle,bird,0,bird1-truck1.png,
gauss_4_sup_RN50_gauss_0_for_60_epoch25,1,252,NaN,dog,bird,0,bird10-bear2.png,
gauss_4_sup_RN50_gauss_0_for_60_epoch25,1,253,NaN,bottle,bird,0,bird10-bicycle1.png,
gauss_4_sup_RN50_gauss_0_for_60_epoch25,1,254,NaN,dog,bird,0,bird10-bird2.png,
gauss_4_sup_RN50_gauss_0_for_60_epoch25,1,255,NaN,dog,bird,0,bird10-cat1.png,
gauss_4_sup_RN50_gauss_0_for_60_epoch25,1,256,NaN,clock,bird,0,bird10-chair1.png,
gauss_4_sup_RN50_gauss_0_for_60_epoch25,1,257,NaN,bottle,bird,0,bird10-clock1.png,
gauss_4_sup_RN50_gauss_0_for_60_epoch25,1,258,NaN,dog,bird,0,bird10-elephant2.png,
gauss_4_sup_RN50_gauss_0_for_60_epoch25,1,259,NaN,bottle,bird,0,bird2-airplane3.png,
gauss_4_sup_RN50_gauss_0_for_60_epoch25,1,260,NaN,bear,bird,0,bird2-bird2.png,
gauss_4_sup_RN50_gauss_0_for_60_epoch25,1,261,NaN,bottle,bird,0,bird2-car3.png,
gauss_4_sup_RN50_gauss_0_for_60_epoch25,1,262,NaN,cat,bird,0,bird2-clock3.png,
gauss_4_sup_RN50_gauss_0_for_60_epoch25,1,263,NaN,dog,bird,0,bird2-dog2.png,
gauss_4_sup_RN50_gauss_0_for_60_epoch25,1,264,NaN,bottle,bird,0,bird2-knife1.png,
gauss_4_sup_RN50_gauss_0_for_60_epoch25,1,265,NaN,elephant,bird,0,bird3-bear3.png,
gauss_4_sup_RN50_gauss_0_for_60_epoch25,1,266,NaN,dog,bird,0,bird3-bird2.png,
gauss_4_sup_RN50_gauss_0_for_60_epoch25,1,267,NaN,bottle,bird,0,bird3-boat3.png,
gauss_4_sup_RN50_gauss_0_for_60_epoch25,1,268,NaN,bottle,bird,0,bird3-bottle2.png,
gauss_4_sup_RN50_gauss_0_for_60_epoch25,1,269,NaN,dog,bird,0,bird3-cat1.png,
gauss_4_sup_RN50_gauss_0_for_60_epoch25,1,270,NaN,elephant,bird,0,bird3-dog1.png,
gauss_4_sup_RN50_gauss_0_for_60_epoch25,1,271,NaN,bottle,bird,0,bird3-knife3.png,
gauss_4_sup_RN50_gauss_0_for_60_epoch25,1,272,NaN,bottle,bird,0,bird3-oven1.png,
gauss_4_sup_RN50_gauss_0_for_60_epoch25,1,273,NaN,bottle,bird,0,bird3-truck3.png,
gauss_4_sup_RN50_gauss_0_for_60_epoch25,1,274,NaN,knife,bird,0,bird4-airplane1.png,
gauss_4_sup_RN50_gauss_0_for_60_epoch25,1,275,NaN,bottle,bird,0,bird4-bicycle2.png,
gauss_4_sup_RN50_gauss_0_for_60_epoch25,1,276,NaN,bottle,bird,0,bird4-cat3.png,
gauss_4_sup_RN50_gauss_0_for_60_epoch25,1,277,NaN,knife,bird,0,bird4-clock1.png,
gauss_4_sup_RN50_gauss_0_for_60_epoch25,1,278,NaN,dog,bird,0,bird4-dog3.png,
gauss_4_sup_RN50_gauss_0_for_60_epoch25,1,279,NaN,bottle,bird,0,bird5-airplane3.png,
gauss_4_sup_RN50_gauss_0_for_60_epoch25,1,280,NaN,cat,bird,0,bird5-bear3.png,
gauss_4_sup_RN50_gauss_0_for_60_epoch25,1,281,NaN,knife,bird,0,bird5-bicycle1.png,
gauss_4_sup_RN50_gauss_0_for_60_epoch25,1,282,NaN,airplane,bird,0,bird5-bird1.png,
gauss_4_sup_RN50_gauss_0_for_60_epoch25,1,283,NaN,boat,bird,0,bird5-car2.png,
gauss_4_sup_RN50_gauss_0_for_60_epoch25,1,284,NaN,bird,bird,0,bird5-cat2.png,
gauss_4_sup_RN50_gauss_0_for_60_epoch25,1,285,NaN,car,bird,0,bird5-chair1.png,
gauss_4_sup_RN50_gauss_0_for_60_epoch25,1,286,NaN,dog,bird,0,bird5-dog2.png,
gauss_4_sup_RN50_gauss_0_for_60_epoch25,1,287,NaN,bottle,bird,0,bird5-keyboard2.png,
gauss_4_sup_RN50_gauss_0_for_60_epoch25,1,288,NaN,chair,bird,0,bird5-oven3.png,
gauss_4_sup_RN50_gauss_0_for_60_epoch25,1,289,NaN,bottle,bird,0,bird5-truck2.png,
gauss_4_sup_RN50_gauss_0_for_60_epoch25,1,290,NaN,bottle,bird,0,bird6-airplane2.png,
gauss_4_sup_RN50_gauss_0_for_60_epoch25,1,291,NaN,boat,bird,0,bird6-boat2.png,
gauss_4_sup_RN50_gauss_0_for_60_epoch25,1,292,NaN,bird,bird,0,bird6-bottle3.png,
gauss_4_sup_RN50_gauss_0_for_60_epoch25,1,293,NaN,bird,bird,0,bird6-car3.png,
gauss_4_sup_RN50_gauss_0_for_60_epoch25,1,294,NaN,dog,bird,0,bird6-elephant2.png,
gauss_4_sup_RN50_gauss_0_for_60_epoch25,1,295,NaN,bottle,bird,0,bird6-oven1.png,
gauss_4_sup_RN50_gauss_0_for_60_epoch25,1,296,NaN,bird,bird,0,bird6-truck2.png,
gauss_4_sup_RN50_gauss_0_for_60_epoch25,1,297,NaN,dog,bird,0,bird7-bird2.png,
gauss_4_sup_RN50_gauss_0_for_60_epoch25,1,298,NaN,bottle,bird,0,bird7-boat1.png,
gauss_4_sup_RN50_gauss_0_for_60_epoch25,1,299,NaN,clock,bird,0,bird7-bottle1.png,
gauss_4_sup_RN50_gauss_0_for_60_epoch25,1,300,NaN,chair,bird,0,bird7-car2.png,
gauss_4_sup_RN50_gauss_0_for_60_epoch25,1,301,NaN,bottle,bird,0,bird7-cat3.png,
gauss_4_sup_RN50_gauss_0_for_60_epoch25,1,302,NaN,bottle,bird,0,bird7-keyboard3.png,
gauss_4_sup_RN50_gauss_0_for_60_epoch25,1,303,NaN,bottle,bird,0,bird7-knife2.png,
gauss_4_sup_RN50_gauss_0_for_60_epoch25,1,304,NaN,elephant,bird,0,bird7-oven3.png,
gauss_4_sup_RN50_gauss_0_for_60_epoch25,1,305,NaN,bottle,bird,0,bird7-truck2.png,
gauss_4_sup_RN50_gauss_0_for_60_epoch25,1,306,NaN,bottle,bird,0,bird8-boat3.png,
gauss_4_sup_RN50_gauss_0_for_60_epoch25,1,307,NaN,dog,bird,0,bird8-bottle1.png,
gauss_4_sup_RN50_gauss_0_for_60_epoch25,1,308,NaN,boat,bird,0,bird8-car2.png,
gauss_4_sup_RN50_gauss_0_for_60_epoch25,1,309,NaN,clock,bird,0,bird8-chair1.png,
gauss_4_sup_RN50_gauss_0_for_60_epoch25,1,310,NaN,bottle,bird,0,bird8-clock1.png,
gauss_4_sup_RN50_gauss_0_for_60_epoch25,1,311,NaN,elephant,bird,0,bird8-elephant1.png,
gauss_4_sup_RN50_gauss_0_for_60_epoch25,1,312,NaN,dog,bird,0,bird8-keyboard2.png,
gauss_4_sup_RN50_gauss_0_for_60_epoch25,1,313,NaN,knife,bird,0,bird8-knife2.png,
gauss_4_sup_RN50_gauss_0_for_60_epoch25,1,314,NaN,dog,bird,0,bird9-bear3.png,
gauss_4_sup_RN50_gauss_0_for_60_epoch25,1,315,NaN,dog,bird,0,bird9-bicycle3.png,
gauss_4_sup_RN50_gauss_0_for_60_epoch25,1,316,NaN,bottle,bird,0,bird9-bottle3.png,
gauss_4_sup_RN50_gauss_0_for_60_epoch25,1,317,NaN,dog,bird,0,bird9-chair1.png,
gauss_4_sup_RN50_gauss_0_for_60_epoch25,1,318,NaN,dog,bird,0,bird9-dog2.png,
gauss_4_sup_RN50_gauss_0_for_60_epoch25,1,319,NaN,dog,bird,0,bird9-elephant2.png,
gauss_4_sup_RN50_gauss_0_for_60_epoch25,1,320,NaN,dog,bird,0,bird9-keyboard1.png,
gauss_4_sup_RN50_gauss_0_for_60_epoch25,1,321,NaN,elephant,boat,0,boat1-bear1.png,
gauss_4_sup_RN50_gauss_0_for_60_epoch25,1,322,NaN,bottle,boat,0,boat1-bicycle2.png,
gauss_4_sup_RN50_gauss_0_for_60_epoch25,1,323,NaN,knife,boat,0,boat1-bird3.png,
gauss_4_sup_RN50_gauss_0_for_60_epoch25,1,324,NaN,car,boat,0,boat1-car2.png,
gauss_4_sup_RN50_gauss_0_for_60_epoch25,1,325,NaN,bear,boat,0,boat1-chair3.png,
gauss_4_sup_RN50_gauss_0_for_60_epoch25,1,326,NaN,elephant,boat,0,boat1-elephant3.png,
gauss_4_sup_RN50_gauss_0_for_60_epoch25,1,327,NaN,airplane,boat,0,boat1-keyboard3.png,
gauss_4_sup_RN50_gauss_0_for_60_epoch25,1,328,NaN,keyboard,boat,0,boat1-oven1.png,
gauss_4_sup_RN50_gauss_0_for_60_epoch25,1,329,NaN,bottle,boat,0,boat1-truck3.png,
gauss_4_sup_RN50_gauss_0_for_60_epoch25,1,330,NaN,cat,boat,0,boat10-bear3.png,
gauss_4_sup_RN50_gauss_0_for_60_epoch25,1,331,NaN,bottle,boat,0,boat10-boat3.png,
gauss_4_sup_RN50_gauss_0_for_60_epoch25,1,332,NaN,dog,boat,0,boat10-cat1.png,
gauss_4_sup_RN50_gauss_0_for_60_epoch25,1,333,NaN,car,boat,0,boat10-oven1.png,
gauss_4_sup_RN50_gauss_0_for_60_epoch25,1,334,NaN,boat,boat,0,boat10-truck1.png,
gauss_4_sup_RN50_gauss_0_for_60_epoch25,1,335,NaN,bottle,boat,0,boat2-airplane1.png,
gauss_4_sup_RN50_gauss_0_for_60_epoch25,1,336,NaN,dog,boat,0,boat2-bear3.png,
gauss_4_sup_RN50_gauss_0_for_60_epoch25,1,337,NaN,bear,boat,0,boat2-bird1.png,
gauss_4_sup_RN50_gauss_0_for_60_epoch25,1,338,NaN,bicycle,boat,0,boat2-bottle2.png,
gauss_4_sup_RN50_gauss_0_for_60_epoch25,1,339,NaN,dog,boat,0,boat2-keyboard1.png,
gauss_4_sup_RN50_gauss_0_for_60_epoch25,1,340,NaN,truck,boat,0,boat2-oven3.png,
gauss_4_sup_RN50_gauss_0_for_60_epoch25,1,341,NaN,bottle,boat,0,boat3-airplane2.png,
gauss_4_sup_RN50_gauss_0_for_60_epoch25,1,342,NaN,elephant,boat,0,boat3-bicycle2.png,
gauss_4_sup_RN50_gauss_0_for_60_epoch25,1,343,NaN,boat,boat,0,boat3-car3.png,
gauss_4_sup_RN50_gauss_0_for_60_epoch25,1,344,NaN,bottle,boat,0,boat3-cat3.png,
gauss_4_sup_RN50_gauss_0_for_60_epoch25,1,345,NaN,bottle,boat,0,boat3-chair3.png,
gauss_4_sup_RN50_gauss_0_for_60_epoch25,1,346,NaN,elephant,boat,0,boat3-clock3.png,
gauss_4_sup_RN50_gauss_0_for_60_epoch25,1,347,NaN,dog,boat,0,boat3-dog3.png,
gauss_4_sup_RN50_gauss_0_for_60_epoch25,1,348,NaN,dog,boat,0,boat3-keyboard2.png,
gauss_4_sup_RN50_gauss_0_for_60_epoch25,1,349,NaN,knife,boat,0,boat4-bicycle3.png,
gauss_4_sup_RN50_gauss_0_for_60_epoch25,1,350,NaN,bottle,boat,0,boat4-bird1.png,
gauss_4_sup_RN50_gauss_0_for_60_epoch25,1,351,NaN,bottle,boat,0,boat4-boat3.png,
gauss_4_sup_RN50_gauss_0_for_60_epoch25,1,352,NaN,bottle,boat,0,boat4-bottle2.png,
gauss_4_sup_RN50_gauss_0_for_60_epoch25,1,353,NaN,cat,boat,0,boat4-car3.png,
gauss_4_sup_RN50_gauss_0_for_60_epoch25,1,354,NaN,knife,boat,0,boat4-chair2.png,
gauss_4_sup_RN50_gauss_0_for_60_epoch25,1,355,NaN,bird,boat,0,boat4-dog2.png,
gauss_4_sup_RN50_gauss_0_for_60_epoch25,1,356,NaN,dog,boat,0,boat4-elephant2.png,
gauss_4_sup_RN50_gauss_0_for_60_epoch25,1,357,NaN,bottle,boat,0,boat4-knife2.png,
gauss_4_sup_RN50_gauss_0_for_60_epoch25,1,358,NaN,cat,boat,0,boat5-airplane1.png,
gauss_4_sup_RN50_gauss_0_for_60_epoch25,1,359,NaN,knife,boat,0,boat5-bicycle3.png,
gauss_4_sup_RN50_gauss_0_for_60_epoch25,1,360,NaN,bottle,boat,0,boat5-boat3.png,
gauss_4_sup_RN50_gauss_0_for_60_epoch25,1,361,NaN,bottle,boat,0,boat5-car3.png,
gauss_4_sup_RN50_gauss_0_for_60_epoch25,1,362,NaN,chair,boat,0,boat5-clock3.png,
gauss_4_sup_RN50_gauss_0_for_60_epoch25,1,363,NaN,oven,boat,0,boat5-knife2.png,
gauss_4_sup_RN50_gauss_0_for_60_epoch25,1,364,NaN,bottle,boat,0,boat6-airplane2.png,
gauss_4_sup_RN50_gauss_0_for_60_epoch25,1,365,NaN,dog,boat,0,boat6-bear1.png,
gauss_4_sup_RN50_gauss_0_for_60_epoch25,1,366,NaN,bottle,boat,0,boat6-bicycle2.png,
gauss_4_sup_RN50_gauss_0_for_60_epoch25,1,367,NaN,bottle,boat,0,boat6-bottle2.png,
gauss_4_sup_RN50_gauss_0_for_60_epoch25,1,368,NaN,bottle,boat,0,boat6-car1.png,
gauss_4_sup_RN50_gauss_0_for_60_epoch25,1,369,NaN,dog,boat,0,boat6-cat1.png,
gauss_4_sup_RN50_gauss_0_for_60_epoch25,1,370,NaN,bottle,boat,0,boat6-clock2.png,
gauss_4_sup_RN50_gauss_0_for_60_epoch25,1,371,NaN,dog,boat,0,boat6-dog1.png,
gauss_4_sup_RN50_gauss_0_for_60_epoch25,1,372,NaN,dog,boat,0,boat6-elephant2.png,
gauss_4_sup_RN50_gauss_0_for_60_epoch25,1,373,NaN,bottle,boat,0,boat6-knife2.png,
gauss_4_sup_RN50_gauss_0_for_60_epoch25,1,374,NaN,bottle,boat,0,boat6-truck3.png,
gauss_4_sup_RN50_gauss_0_for_60_epoch25,1,375,NaN,bottle,boat,0,boat7-boat2.png,
gauss_4_sup_RN50_gauss_0_for_60_epoch25,1,376,NaN,dog,boat,0,boat7-bottle1.png,
gauss_4_sup_RN50_gauss_0_for_60_epoch25,1,377,NaN,dog,boat,0,boat7-cat3.png,
gauss_4_sup_RN50_gauss_0_for_60_epoch25,1,378,NaN,bird,boat,0,boat7-chair1.png,
gauss_4_sup_RN50_gauss_0_for_60_epoch25,1,379,NaN,dog,boat,0,boat7-clock3.png,
gauss_4_sup_RN50_gauss_0_for_60_epoch25,1,380,NaN,cat,boat,0,boat7-elephant3.png,
gauss_4_sup_RN50_gauss_0_for_60_epoch25,1,381,NaN,dog,boat,0,boat7-keyboard3.png,
gauss_4_sup_RN50_gauss_0_for_60_epoch25,1,382,NaN,knife,boat,0,boat7-oven3.png,
gauss_4_sup_RN50_gauss_0_for_60_epoch25,1,383,NaN,bottle,boat,0,boat7-truck2.png,
gauss_4_sup_RN50_gauss_0_for_60_epoch25,1,384,NaN,knife,boat,0,boat8-bird2.png,
gauss_4_sup_RN50_gauss_0_for_60_epoch25,1,385,NaN,knife,boat,0,boat8-bottle1.png,
gauss_4_sup_RN50_gauss_0_for_60_epoch25,1,386,NaN,dog,boat,0,boat8-dog3.png,
gauss_4_sup_RN50_gauss_0_for_60_epoch25,1,387,NaN,cat,boat,0,boat8-elephant1.png,
gauss_4_sup_RN50_gauss_0_for_60_epoch25,1,388,NaN,keyboard,boat,0,boat8-knife1.png,
gauss_4_sup_RN50_gauss_0_for_60_epoch25,1,389,NaN,bottle,boat,0,boat8-oven1.png,
gauss_4_sup_RN50_gauss_0_for_60_epoch25,1,390,NaN,bottle,boat,0,boat8-truck2.png,
gauss_4_sup_RN50_gauss_0_for_60_epoch25,1,391,NaN,bottle,boat,0,boat9-airplane2.png,
gauss_4_sup_RN50_gauss_0_for_60_epoch25,1,392,NaN,dog,boat,0,boat9-bear3.png,
gauss_4_sup_RN50_gauss_0_for_60_epoch25,1,393,NaN,bottle,boat,0,boat9-bird1.png,
gauss_4_sup_RN50_gauss_0_for_60_epoch25,1,394,NaN,bottle,boat,0,boat9-boat3.png,
gauss_4_sup_RN50_gauss_0_for_60_epoch25,1,395,NaN,bottle,boat,0,boat9-cat3.png,
gauss_4_sup_RN50_gauss_0_for_60_epoch25,1,396,NaN,bottle,boat,0,boat9-chair2.png,
gauss_4_sup_RN50_gauss_0_for_60_epoch25,1,397,NaN,bottle,boat,0,boat9-clock1.png,
gauss_4_sup_RN50_gauss_0_for_60_epoch25,1,398,NaN,elephant,boat,0,boat9-dog2.png,
gauss_4_sup_RN50_gauss_0_for_60_epoch25,1,399,NaN,bottle,boat,0,boat9-keyboard2.png,
gauss_4_sup_RN50_gauss_0_for_60_epoch25,1,400,NaN,bottle,boat,0,boat9-knife2.png,
gauss_4_sup_RN50_gauss_0_for_60_epoch25,1,401,NaN,cat,bottle,0,bottle1-bear1.png,
gauss_4_sup_RN50_gauss_0_for_60_epoch25,1,402,NaN,bottle,bottle,0,bottle1-bird3.png,
gauss_4_sup_RN50_gauss_0_for_60_epoch25,1,403,NaN,bottle,bottle,0,bottle1-car1.png,
gauss_4_sup_RN50_gauss_0_for_60_epoch25,1,404,NaN,bottle,bottle,0,bottle1-cat3.png,
gauss_4_sup_RN50_gauss_0_for_60_epoch25,1,405,NaN,bottle,bottle,0,bottle1-chair2.png,
gauss_4_sup_RN50_gauss_0_for_60_epoch25,1,406,NaN,bottle,bottle,0,bottle1-clock1.png,
gauss_4_sup_RN50_gauss_0_for_60_epoch25,1,407,NaN,cat,bottle,0,bottle1-dog2.png,
gauss_4_sup_RN50_gauss_0_for_60_epoch25,1,408,NaN,bottle,bottle,0,bottle1-keyboard3.png,
gauss_4_sup_RN50_gauss_0_for_60_epoch25,1,409,NaN,dog,bottle,0,bottle10-bear2.png,
gauss_4_sup_RN50_gauss_0_for_60_epoch25,1,410,NaN,bottle,bottle,0,bottle10-boat3.png,
gauss_4_sup_RN50_gauss_0_for_60_epoch25,1,411,NaN,bottle,bottle,0,bottle10-car1.png,
gauss_4_sup_RN50_gauss_0_for_60_epoch25,1,412,NaN,bottle,bottle,0,bottle10-clock2.png,
gauss_4_sup_RN50_gauss_0_for_60_epoch25,1,413,NaN,elephant,bottle,0,bottle10-dog1.png,
gauss_4_sup_RN50_gauss_0_for_60_epoch25,1,414,NaN,bottle,bottle,0,bottle10-truck3.png,
gauss_4_sup_RN50_gauss_0_for_60_epoch25,1,415,NaN,bottle,bottle,0,bottle2-bottle3.png,
gauss_4_sup_RN50_gauss_0_for_60_epoch25,1,416,NaN,bottle,bottle,0,bottle2-car2.png,
gauss_4_sup_RN50_gauss_0_for_60_epoch25,1,417,NaN,bottle,bottle,0,bottle2-chair3.png,
gauss_4_sup_RN50_gauss_0_for_60_epoch25,1,418,NaN,bottle,bottle,0,bottle2-clock1.png,
gauss_4_sup_RN50_gauss_0_for_60_epoch25,1,419,NaN,elephant,bottle,0,bottle2-elephant1.png,
gauss_4_sup_RN50_gauss_0_for_60_epoch25,1,420,NaN,bottle,bottle,0,bottle2-knife3.png,
gauss_4_sup_RN50_gauss_0_for_60_epoch25,1,421,NaN,bottle,bottle,0,bottle3-airplane2.png,
gauss_4_sup_RN50_gauss_0_for_60_epoch25,1,422,NaN,bear,bottle,0,bottle3-bear2.png,
gauss_4_sup_RN50_gauss_0_for_60_epoch25,1,423,NaN,knife,bottle,0,bottle3-bicycle3.png,
gauss_4_sup_RN50_gauss_0_for_60_epoch25,1,424,NaN,dog,bottle,0,bottle3-bird1.png,
gauss_4_sup_RN50_gauss_0_for_60_epoch25,1,425,NaN,bottle,bottle,0,bottle3-boat3.png,
gauss_4_sup_RN50_gauss_0_for_60_epoch25,1,426,NaN,bottle,bottle,0,bottle3-bottle3.png,
gauss_4_sup_RN50_gauss_0_for_60_epoch25,1,427,NaN,bottle,bottle,0,bottle3-cat3.png,
gauss_4_sup_RN50_gauss_0_for_60_epoch25,1,428,NaN,bottle,bottle,0,bottle3-chair3.png,
gauss_4_sup_RN50_gauss_0_for_60_epoch25,1,429,NaN,bottle,bottle,0,bottle3-knife3.png,
gauss_4_sup_RN50_gauss_0_for_60_epoch25,1,430,NaN,bottle,bottle,0,bottle4-airplane1.png,
gauss_4_sup_RN50_gauss_0_for_60_epoch25,1,431,NaN,bottle,bottle,0,bottle4-bicycle1.png,
gauss_4_sup_RN50_gauss_0_for_60_epoch25,1,432,NaN,dog,bottle,0,bottle4-car3.png,
gauss_4_sup_RN50_gauss_0_for_60_epoch25,1,433,NaN,dog,bottle,0,bottle4-dog2.png,
gauss_4_sup_RN50_gauss_0_for_60_epoch25,1,434,NaN,bottle,bottle,0,bottle4-oven2.png,
gauss_4_sup_RN50_gauss_0_for_60_epoch25,1,435,NaN,bottle,bottle,0,bottle4-truck1.png,
gauss_4_sup_RN50_gauss_0_for_60_epoch25,1,436,NaN,bottle,bottle,0,bottle5-airplane1.png,
gauss_4_sup_RN50_gauss_0_for_60_epoch25,1,437,NaN,bottle,bottle,0,bottle5-bird3.png,
gauss_4_sup_RN50_gauss_0_for_60_epoch25,1,438,NaN,bottle,bottle,0,bottle5-boat1.png,
gauss_4_sup_RN50_gauss_0_for_60_epoch25,1,439,NaN,dog,bottle,0,bottle5-cat1.png,
gauss_4_sup_RN50_gauss_0_for_60_epoch25,1,440,NaN,bottle,bottle,0,bottle5-chair1.png,
gauss_4_sup_RN50_gauss_0_for_60_epoch25,1,441,NaN,bottle,bottle,0,bottle5-clock3.png,
gauss_4_sup_RN50_gauss_0_for_60_epoch25,1,442,NaN,elephant,bottle,0,bottle5-elephant1.png,
gauss_4_sup_RN50_gauss_0_for_60_epoch25,1,443,NaN,dog,bottle,0,bottle5-keyboard2.png,
gauss_4_sup_RN50_gauss_0_for_60_epoch25,1,444,NaN,bottle,bottle,0,bottle5-knife1.png,
gauss_4_sup_RN50_gauss_0_for_60_epoch25,1,445,NaN,bottle,bottle,0,bottle5-oven2.png,
gauss_4_sup_RN50_gauss_0_for_60_epoch25,1,446,NaN,bottle,bottle,0,bottle5-truck1.png,
gauss_4_sup_RN50_gauss_0_for_60_epoch25,1,447,NaN,bottle,bottle,0,bottle6-airplane1.png,
gauss_4_sup_RN50_gauss_0_for_60_epoch25,1,448,NaN,bear,bottle,0,bottle6-bear2.png,
gauss_4_sup_RN50_gauss_0_for_60_epoch25,1,449,NaN,bottle,bottle,0,bottle6-bicycle3.png,
gauss_4_sup_RN50_gauss_0_for_60_epoch25,1,450,NaN,dog,bottle,0,bottle6-bird1.png,
gauss_4_sup_RN50_gauss_0_for_60_epoch25,1,451,NaN,bottle,bottle,0,bottle6-boat3.png,
gauss_4_sup_RN50_gauss_0_for_60_epoch25,1,452,NaN,bottle,bottle,0,bottle6-bottle3.png,
gauss_4_sup_RN50_gauss_0_for_60_epoch25,1,453,NaN,oven,bottle,0,bottle6-chair2.png,
gauss_4_sup_RN50_gauss_0_for_60_epoch25,1,454,NaN,dog,bottle,0,bottle6-dog3.png,
gauss_4_sup_RN50_gauss_0_for_60_epoch25,1,455,NaN,bottle,bottle,0,bottle6-knife3.png,
gauss_4_sup_RN50_gauss_0_for_60_epoch25,1,456,NaN,bottle,bottle,0,bottle6-oven3.png,
gauss_4_sup_RN50_gauss_0_for_60_epoch25,1,457,NaN,bottle,bottle,0,bottle7-airplane3.png,
gauss_4_sup_RN50_gauss_0_for_60_epoch25,1,458,NaN,dog,bottle,0,bottle7-bear1.png,
gauss_4_sup_RN50_gauss_0_for_60_epoch25,1,459,NaN,bottle,bottle,0,bottle7-boat3.png,
gauss_4_sup_RN50_gauss_0_for_60_epoch25,1,460,NaN,dog,bottle,0,bottle7-cat2.png,
gauss_4_sup_RN50_gauss_0_for_60_epoch25,1,461,NaN,bottle,bottle,0,bottle7-clock1.png,
gauss_4_sup_RN50_gauss_0_for_60_epoch25,1,462,NaN,dog,bottle,0,bottle7-elephant2.png,
gauss_4_sup_RN50_gauss_0_for_60_epoch25,1,463,NaN,dog,bottle,0,bottle7-keyboard2.png,
gauss_4_sup_RN50_gauss_0_for_60_epoch25,1,464,NaN,bottle,bottle,0,bottle7-oven2.png,
gauss_4_sup_RN50_gauss_0_for_60_epoch25,1,465,NaN,bottle,bottle,0,bottle7-truck2.png,
gauss_4_sup_RN50_gauss_0_for_60_epoch25,1,466,NaN,bottle,bottle,0,bottle8-bicycle1.png,
gauss_4_sup_RN50_gauss_0_for_60_epoch25,1,467,NaN,dog,bottle,0,bottle8-bird1.png,
gauss_4_sup_RN50_gauss_0_for_60_epoch25,1,468,NaN,bottle,bottle,0,bottle8-bottle3.png,
gauss_4_sup_RN50_gauss_0_for_60_epoch25,1,469,NaN,bottle,bottle,0,bottle8-dog2.png,
gauss_4_sup_RN50_gauss_0_for_60_epoch25,1,470,NaN,cat,bottle,0,bottle8-elephant3.png,
gauss_4_sup_RN50_gauss_0_for_60_epoch25,1,471,NaN,bottle,bottle,0,bottle8-keyboard3.png,
gauss_4_sup_RN50_gauss_0_for_60_epoch25,1,472,NaN,bottle,bottle,0,bottle8-knife1.png,
gauss_4_sup_RN50_gauss_0_for_60_epoch25,1,473,NaN,bottle,bottle,0,bottle9-bicycle1.png,
gauss_4_sup_RN50_gauss_0_for_60_epoch25,1,474,NaN,bottle,bottle,0,bottle9-bottle1.png,
gauss_4_sup_RN50_gauss_0_for_60_epoch25,1,475,NaN,bottle,bottle,0,bottle9-car3.png,
gauss_4_sup_RN50_gauss_0_for_60_epoch25,1,476,NaN,cat,bottle,0,bottle9-cat2.png,
gauss_4_sup_RN50_gauss_0_for_60_epoch25,1,477,NaN,dog,bottle,0,bottle9-elephant2.png,
gauss_4_sup_RN50_gauss_0_for_60_epoch25,1,478,NaN,bottle,bottle,0,bottle9-keyboard1.png,
gauss_4_sup_RN50_gauss_0_for_60_epoch25,1,479,NaN,bottle,bottle,0,bottle9-oven2.png,
gauss_4_sup_RN50_gauss_0_for_60_epoch25,1,480,NaN,bottle,bottle,0,bottle9-truck1.png,
gauss_4_sup_RN50_gauss_0_for_60_epoch25,1,481,NaN,knife,car,0,car1-airplane1.png,
gauss_4_sup_RN50_gauss_0_for_60_epoch25,1,482,NaN,car,car,0,car1-car2.png,
gauss_4_sup_RN50_gauss_0_for_60_epoch25,1,483,NaN,truck,car,0,car1-chair3.png,
gauss_4_sup_RN50_gauss_0_for_60_epoch25,1,484,NaN,keyboard,car,0,car1-clock2.png,
gauss_4_sup_RN50_gauss_0_for_60_epoch25,1,485,NaN,elephant,car,0,car1-dog2.png,
gauss_4_sup_RN50_gauss_0_for_60_epoch25,1,486,NaN,keyboard,car,0,car1-keyboard2.png,
gauss_4_sup_RN50_gauss_0_for_60_epoch25,1,487,NaN,keyboard,car,0,car1-oven3.png,
gauss_4_sup_RN50_gauss_0_for_60_epoch25,1,488,NaN,bottle,car,0,car10-bicycle2.png,
gauss_4_sup_RN50_gauss_0_for_60_epoch25,1,489,NaN,bottle,car,0,car10-bottle3.png,
gauss_4_sup_RN50_gauss_0_for_60_epoch25,1,490,NaN,chair,car,0,car10-car1.png,
gauss_4_sup_RN50_gauss_0_for_60_epoch25,1,491,NaN,car,car,0,car10-chair1.png,
gauss_4_sup_RN50_gauss_0_for_60_epoch25,1,492,NaN,elephant,car,0,car10-dog1.png,
gauss_4_sup_RN50_gauss_0_for_60_epoch25,1,493,NaN,elephant,car,0,car10-elephant2.png,
gauss_4_sup_RN50_gauss_0_for_60_epoch25,1,494,NaN,bottle,car,0,car10-keyboard2.png,
gauss_4_sup_RN50_gauss_0_for_60_epoch25,1,495,NaN,bottle,car,0,car2-bird3.png,
gauss_4_sup_RN50_gauss_0_for_60_epoch25,1,496,NaN,bottle,car,0,car2-car3.png,
gauss_4_sup_RN50_gauss_0_for_60_epoch25,1,497,NaN,bottle,car,0,car2-cat3.png,
gauss_4_sup_RN50_gauss_0_for_60_epoch25,1,498,NaN,car,car,0,car2-chair1.png,
gauss_4_sup_RN50_gauss_0_for_60_epoch25,1,499,NaN,bottle,car,0,car2-knife3.png,
gauss_4_sup_RN50_gauss_0_for_60_epoch25,1,500,NaN,car,car,0,car3-airplane3.png,
gauss_4_sup_RN50_gauss_0_for_60_epoch25,1,501,NaN,bottle,car,0,car3-bird2.png,
gauss_4_sup_RN50_gauss_0_for_60_epoch25,1,502,NaN,chair,car,0,car3-boat1.png,
gauss_4_sup_RN50_gauss_0_for_60_epoch25,1,503,NaN,bottle,car,0,car3-bottle3.png,
gauss_4_sup_RN50_gauss_0_for_60_epoch25,1,504,NaN,dog,car,0,car3-dog2.png,
gauss_4_sup_RN50_gauss_0_for_60_epoch25,1,505,NaN,elephant,car,0,car3-elephant3.png,
gauss_4_sup_RN50_gauss_0_for_60_epoch25,1,506,NaN,airplane,car,0,car3-oven3.png,
gauss_4_sup_RN50_gauss_0_for_60_epoch25,1,507,NaN,car,car,0,car3-truck1.png,
gauss_4_sup_RN50_gauss_0_for_60_epoch25,1,508,NaN,dog,car,0,car4-bear3.png,
gauss_4_sup_RN50_gauss_0_for_60_epoch25,1,509,NaN,knife,car,0,car4-bicycle3.png,
gauss_4_sup_RN50_gauss_0_for_60_epoch25,1,510,NaN,bear,car,0,car4-bird1.png,
gauss_4_sup_RN50_gauss_0_for_60_epoch25,1,511,NaN,bottle,car,0,car4-boat1.png,
gauss_4_sup_RN50_gauss_0_for_60_epoch25,1,512,NaN,knife,car,0,car4-bottle1.png,
gauss_4_sup_RN50_gauss_0_for_60_epoch25,1,513,NaN,car,car,0,car4-car2.png,
gauss_4_sup_RN50_gauss_0_for_60_epoch25,1,514,NaN,bottle,car,0,car4-cat3.png,
gauss_4_sup_RN50_gauss_0_for_60_epoch25,1,515,NaN,knife,car,0,car4-clock1.png,
gauss_4_sup_RN50_gauss_0_for_60_epoch25,1,516,NaN,elephant,car,0,car4-elephant3.png,
gauss_4_sup_RN50_gauss_0_for_60_epoch25,1,517,NaN,bottle,car,0,car4-oven2.png,
gauss_4_sup_RN50_gauss_0_for_60_epoch25,1,518,NaN,bottle,car,0,car5-airplane3.png,
gauss_4_sup_RN50_gauss_0_for_60_epoch25,1,519,NaN,dog,car,0,car5-bear3.png,
gauss_4_sup_RN50_gauss_0_for_60_epoch25,1,520,NaN,chair,car,0,car5-bottle1.png,
gauss_4_sup_RN50_gauss_0_for_60_epoch25,1,521,NaN,dog,car,0,car5-cat1.png,
gauss_4_sup_RN50_gauss_0_for_60_epoch25,1,522,NaN,bottle,car,0,car5-keyboard3.png,
gauss_4_sup_RN50_gauss_0_for_60_epoch25,1,523,NaN,bottle,car,0,car5-knife2.png,
gauss_4_sup_RN50_gauss_0_for_60_epoch25,1,524,NaN,bottle,car,0,car5-oven2.png,
gauss_4_sup_RN50_gauss_0_for_60_epoch25,1,525,NaN,bottle,car,0,car5-truck3.png,
gauss_4_sup_RN50_gauss_0_for_60_epoch25,1,526,NaN,elephant,car,0,car6-bear1.png,
gauss_4_sup_RN50_gauss_0_for_60_epoch25,1,527,NaN,car,car,0,car6-bicycle3.png,
gauss_4_sup_RN50_gauss_0_for_60_epoch25,1,528,NaN,bottle,car,0,car6-boat1.png,
gauss_4_sup_RN50_gauss_0_for_60_epoch25,1,529,NaN,truck,car,0,car6-bottle1.png,
gauss_4_sup_RN50_gauss_0_for_60_epoch25,1,530,NaN,bottle,car,0,car6-chair3.png,
gauss_4_sup_RN50_gauss_0_for_60_epoch25,1,531,NaN,dog,car,0,car6-elephant3.png,
gauss_4_sup_RN50_gauss_0_for_60_epoch25,1,532,NaN,bottle,car,0,car6-knife1.png,
gauss_4_sup_RN50_gauss_0_for_60_epoch25,1,533,NaN,bottle,car,0,car6-truck3.png,
gauss_4_sup_RN50_gauss_0_for_60_epoch25,1,534,NaN,bottle,car,0,car7-airplane2.png,
gauss_4_sup_RN50_gauss_0_for_60_epoch25,1,535,NaN,elephant,car,0,car7-bear1.png,
gauss_4_sup_RN50_gauss_0_for_60_epoch25,1,536,NaN,bottle,car,0,car7-bird3.png,
gauss_4_sup_RN50_gauss_0_for_60_epoch25,1,537,NaN,bottle,car,0,car7-boat3.png,
gauss_4_sup_RN50_gauss_0_for_60_epoch25,1,538,NaN,chair,car,0,car7-car1.png,
gauss_4_sup_RN50_gauss_0_for_60_epoch25,1,539,NaN,bottle,car,0,car7-clock1.png,
gauss_4_sup_RN50_gauss_0_for_60_epoch25,1,540,NaN,dog,car,0,car7-dog3.png,
gauss_4_sup_RN50_gauss_0_for_60_epoch25,1,541,NaN,elephant,car,0,car7-elephant3.png,
gauss_4_sup_RN50_gauss_0_for_60_epoch25,1,542,NaN,bottle,car,0,car7-keyboard3.png,
gauss_4_sup_RN50_gauss_0_for_60_epoch25,1,543,NaN,keyboard,car,0,car7-oven2.png,
gauss_4_sup_RN50_gauss_0_for_60_epoch25,1,544,NaN,car,car,0,car8-airplane3.png,
gauss_4_sup_RN50_gauss_0_for_60_epoch25,1,545,NaN,elephant,car,0,car8-bear1.png,
gauss_4_sup_RN50_gauss_0_for_60_epoch25,1,546,NaN,cat,car,0,car8-bicycle2.png,
gauss_4_sup_RN50_gauss_0_for_60_epoch25,1,547,NaN,bottle,car,0,car8-boat3.png,
gauss_4_sup_RN50_gauss_0_for_60_epoch25,1,548,NaN,bottle,car,0,car8-cat1.png,
gauss_4_sup_RN50_gauss_0_for_60_epoch25,1,549,NaN,car,car,0,car8-chair1.png,
gauss_4_sup_RN50_gauss_0_for_60_epoch25,1,550,NaN,bottle,car,0,car8-clock2.png,
gauss_4_sup_RN50_gauss_0_for_60_epoch25,1,551,NaN,elephant,car,0,car8-dog1.png,
gauss_4_sup_RN50_gauss_0_for_60_epoch25,1,552,NaN,bottle,car,0,car8-knife2.png,
gauss_4_sup_RN50_gauss_0_for_60_epoch25,1,553,NaN,bottle,car,0,car8-truck3.png,
gauss_4_sup_RN50_gauss_0_for_60_epoch25,1,554,NaN,bottle,car,0,car9-bicycle2.png,
gauss_4_sup_RN50_gauss_0_for_60_epoch25,1,555,NaN,dog,car,0,car9-bird1.png,
gauss_4_sup_RN50_gauss_0_for_60_epoch25,1,556,NaN,bottle,car,0,car9-cat1.png,
gauss_4_sup_RN50_gauss_0_for_60_epoch25,1,557,NaN,car,car,0,car9-clock2.png,
gauss_4_sup_RN50_gauss_0_for_60_epoch25,1,558,NaN,bottle,car,0,car9-keyboard2.png,
gauss_4_sup_RN50_gauss_0_for_60_epoch25,1,559,NaN,bottle,car,0,car9-knife1.png,
gauss_4_sup_RN50_gauss_0_for_60_epoch25,1,560,NaN,bottle,car,0,car9-truck3.png,
gauss_4_sup_RN50_gauss_0_for_60_epoch25,1,561,NaN,cat,cat,0,cat1-airplane1.png,
gauss_4_sup_RN50_gauss_0_for_60_epoch25,1,562,NaN,dog,cat,0,cat1-bird1.png,
gauss_4_sup_RN50_gauss_0_for_60_epoch25,1,563,NaN,bottle,cat,0,cat1-boat1.png,
gauss_4_sup_RN50_gauss_0_for_60_epoch25,1,564,NaN,dog,cat,0,cat1-car2.png,
gauss_4_sup_RN50_gauss_0_for_60_epoch25,1,565,NaN,bottle,cat,0,cat1-cat3.png,
gauss_4_sup_RN50_gauss_0_for_60_epoch25,1,566,NaN,oven,cat,0,cat1-chair2.png,
gauss_4_sup_RN50_gauss_0_for_60_epoch25,1,567,NaN,cat,cat,0,cat1-dog1.png,
gauss_4_sup_RN50_gauss_0_for_60_epoch25,1,568,NaN,bottle,cat,0,cat1-keyboard3.png,
gauss_4_sup_RN50_gauss_0_for_60_epoch25,1,569,NaN,bottle,cat,0,cat1-oven1.png,
gauss_4_sup_RN50_gauss_0_for_60_epoch25,1,570,NaN,dog,cat,0,cat10-airplane3.png,
gauss_4_sup_RN50_gauss_0_for_60_epoch25,1,571,NaN,cat,cat,0,cat10-bear1.png,
gauss_4_sup_RN50_gauss_0_for_60_epoch25,1,572,NaN,bottle,cat,0,cat10-bicycle1.png,
gauss_4_sup_RN50_gauss_0_for_60_epoch25,1,573,NaN,dog,cat,0,cat10-bird2.png,
gauss_4_sup_RN50_gauss_0_for_60_epoch25,1,574,NaN,dog,cat,0,cat10-bottle1.png,
gauss_4_sup_RN50_gauss_0_for_60_epoch25,1,575,NaN,knife,cat,0,cat10-clock1.png,
gauss_4_sup_RN50_gauss_0_for_60_epoch25,1,576,NaN,elephant,cat,0,cat10-elephant3.png,
gauss_4_sup_RN50_gauss_0_for_60_epoch25,1,577,NaN,dog,cat,0,cat10-keyboard1.png,
gauss_4_sup_RN50_gauss_0_for_60_epoch25,1,578,NaN,bottle,cat,0,cat10-oven2.png,
gauss_4_sup_RN50_gauss_0_for_60_epoch25,1,579,NaN,bottle,cat,0,cat2-boat2.png,
gauss_4_sup_RN50_gauss_0_for_60_epoch25,1,580,NaN,cat,cat,0,cat2-bottle3.png,
gauss_4_sup_RN50_gauss_0_for_60_epoch25,1,581,NaN,dog,cat,0,cat2-car3.png,
gauss_4_sup_RN50_gauss_0_for_60_epoch25,1,582,NaN,dog,cat,0,cat2-cat1.png,
gauss_4_sup_RN50_gauss_0_for_60_epoch25,1,583,NaN,cat,cat,0,cat2-elephant1.png,
gauss_4_sup_RN50_gauss_0_for_60_epoch25,1,584,NaN,bottle,cat,0,cat2-knife3.png,
gauss_4_sup_RN50_gauss_0_for_60_epoch25,1,585,NaN,bottle,cat,0,cat2-truck3.png,
gauss_4_sup_RN50_gauss_0_for_60_epoch25,1,586,NaN,bear,cat,0,cat3-bear2.png,
gauss_4_sup_RN50_gauss_0_for_60_epoch25,1,587,NaN,cat,cat,0,cat3-bicycle1.png,
gauss_4_sup_RN50_gauss_0_for_60_epoch25,1,588,NaN,dog,cat,0,cat3-cat1.png,
gauss_4_sup_RN50_gauss_0_for_60_epoch25,1,589,NaN,dog,cat,0,cat3-elephant2.png,
gauss_4_sup_RN50_gauss_0_for_60_epoch25,1,590,NaN,bottle,cat,0,cat3-oven2.png,
gauss_4_sup_RN50_gauss_0_for_60_epoch25,1,591,NaN,bottle,cat,0,cat3-truck3.png,
gauss_4_sup_RN50_gauss_0_for_60_epoch25,1,592,NaN,cat,cat,0,cat4-airplane1.png,
gauss_4_sup_RN50_gauss_0_for_60_epoch25,1,593,NaN,cat,cat,0,cat4-bird2.png,
gauss_4_sup_RN50_gauss_0_for_60_epoch25,1,594,NaN,boat,cat,0,cat4-car2.png,
gauss_4_sup_RN50_gauss_0_for_60_epoch25,1,595,NaN,dog,cat,0,cat4-cat3.png,
gauss_4_sup_RN50_gauss_0_for_60_epoch25,1,596,NaN,oven,cat,0,cat4-chair2.png,
gauss_4_sup_RN50_gauss_0_for_60_epoch25,1,597,NaN,cat,cat,0,cat4-clock2.png,
gauss_4_sup_RN50_gauss_0_for_60_epoch25,1,598,NaN,dog,cat,0,cat4-dog3.png,
gauss_4_sup_RN50_gauss_0_for_60_epoch25,1,599,NaN,bottle,cat,0,cat4-keyboard2.png,
gauss_4_sup_RN50_gauss_0_for_60_epoch25,1,600,NaN,dog,cat,0,cat4-knife1.png,
gauss_4_sup_RN50_gauss_0_for_60_epoch25,1,601,NaN,bottle,cat,0,cat4-oven1.png,
gauss_4_sup_RN50_gauss_0_for_60_epoch25,1,602,NaN,bottle,cat,0,cat4-truck3.png,
gauss_4_sup_RN50_gauss_0_for_60_epoch25,1,603,NaN,bottle,cat,0,cat5-airplane2.png,
gauss_4_sup_RN50_gauss_0_for_60_epoch25,1,604,NaN,dog,cat,0,cat5-bear2.png,
gauss_4_sup_RN50_gauss_0_for_60_epoch25,1,605,NaN,knife,cat,0,cat5-bicycle3.png,
gauss_4_sup_RN50_gauss_0_for_60_epoch25,1,606,NaN,bottle,cat,0,cat5-boat1.png,
gauss_4_sup_RN50_gauss_0_for_60_epoch25,1,607,NaN,oven,cat,0,cat5-bottle1.png,
gauss_4_sup_RN50_gauss_0_for_60_epoch25,1,608,NaN,bicycle,cat,0,cat5-car2.png,
gauss_4_sup_RN50_gauss_0_for_60_epoch25,1,609,NaN,bottle,cat,0,cat5-chair3.png,
gauss_4_sup_RN50_gauss_0_for_60_epoch25,1,610,NaN,dog,cat,0,cat5-dog3.png,
gauss_4_sup_RN50_gauss_0_for_60_epoch25,1,611,NaN,dog,cat,0,cat5-elephant2.png,
gauss_4_sup_RN50_gauss_0_for_60_epoch25,1,612,NaN,bottle,cat,0,cat5-keyboard3.png,
gauss_4_sup_RN50_gauss_0_for_60_epoch25,1,613,NaN,bottle,cat,0,cat5-knife2.png,
gauss_4_sup_RN50_gauss_0_for_60_epoch25,1,614,NaN,dog,cat,0,cat6-bear1.png,
gauss_4_sup_RN50_gauss_0_for_60_epoch25,1,615,NaN,bottle,cat,0,cat6-chair3.png,
gauss_4_sup_RN50_gauss_0_for_60_epoch25,1,616,NaN,cat,cat,0,cat6-clock3.png,
gauss_4_sup_RN50_gauss_0_for_60_epoch25,1,617,NaN,dog,cat,0,cat6-keyboard3.png,
gauss_4_sup_RN50_gauss_0_for_60_epoch25,1,618,NaN,bottle,cat,0,cat6-oven1.png,
gauss_4_sup_RN50_gauss_0_for_60_epoch25,1,619,NaN,bottle,cat,0,cat7-airplane2.png,
gauss_4_sup_RN50_gauss_0_for_60_epoch25,1,620,NaN,bottle,cat,0,cat7-boat3.png,
gauss_4_sup_RN50_gauss_0_for_60_epoch25,1,621,NaN,dog,cat,0,cat7-bottle1.png,
gauss_4_sup_RN50_gauss_0_for_60_epoch25,1,622,NaN,cat,cat,0,cat7-clock3.png,
gauss_4_sup_RN50_gauss_0_for_60_epoch25,1,623,NaN,dog,cat,0,cat7-dog3.png,
gauss_4_sup_RN50_gauss_0_for_60_epoch25,1,624,NaN,cat,cat,0,cat7-elephant1.png,
gauss_4_sup_RN50_gauss_0_for_60_epoch25,1,625,NaN,bottle,cat,0,cat7-knife2.png,
gauss_4_sup_RN50_gauss_0_for_60_epoch25,1,626,NaN,car,cat,0,cat7-truck2.png,
gauss_4_sup_RN50_gauss_0_for_60_epoch25,1,627,NaN,dog,cat,0,cat8-bear1.png,
gauss_4_sup_RN50_gauss_0_for_60_epoch25,1,628,NaN,cat,cat,0,cat8-bicycle3.png,
gauss_4_sup_RN50_gauss_0_for_60_epoch25,1,629,NaN,dog,cat,0,cat8-bird2.png,
gauss_4_sup_RN50_gauss_0_for_60_epoch25,1,630,NaN,dog,cat,0,cat8-car2.png,
gauss_4_sup_RN50_gauss_0_for_60_epoch25,1,631,NaN,bear,cat,0,cat9-bicycle1.png,
gauss_4_sup_RN50_gauss_0_for_60_epoch25,1,632,NaN,bottle,cat,0,cat9-bird3.png,
gauss_4_sup_RN50_gauss_0_for_60_epoch25,1,633,NaN,oven,cat,0,cat9-boat2.png,
gauss_4_sup_RN50_gauss_0_for_60_epoch25,1,634,NaN,bear,cat,0,cat9-bottle2.png,
gauss_4_sup_RN50_gauss_0_for_60_epoch25,1,635,NaN,bottle,cat,0,cat9-cat3.png,
gauss_4_sup_RN50_gauss_0_for_60_epoch25,1,636,NaN,oven,cat,0,cat9-chair2.png,
gauss_4_sup_RN50_gauss_0_for_60_epoch25,1,637,NaN,cat,cat,0,cat9-clock2.png,
gauss_4_sup_RN50_gauss_0_for_60_epoch25,1,638,NaN,dog,cat,0,cat9-dog2.png,
gauss_4_sup_RN50_gauss_0_for_60_epoch25,1,639,NaN,bottle,cat,0,cat9-knife2.png,
gauss_4_sup_RN50_gauss_0_for_60_epoch25,1,640,NaN,bottle,cat,0,cat9-truck1.png,
gauss_4_sup_RN50_gauss_0_for_60_epoch25,1,641,NaN,bottle,chair,0,chair1-airplane2.png,
gauss_4_sup_RN50_gauss_0_for_60_epoch25,1,642,NaN,dog,chair,0,chair1-bear1.png,
gauss_4_sup_RN50_gauss_0_for_60_epoch25,1,643,NaN,bottle,chair,0,chair1-cat3.png,
gauss_4_sup_RN50_gauss_0_for_60_epoch25,1,644,NaN,bottle,chair,0,chair1-chair1.png,
gauss_4_sup_RN50_gauss_0_for_60_epoch25,1,645,NaN,cat,chair,0,chair1-clock2.png,
gauss_4_sup_RN50_gauss_0_for_60_epoch25,1,646,NaN,cat,chair,0,chair1-dog1.png,
gauss_4_sup_RN50_gauss_0_for_60_epoch25,1,647,NaN,cat,chair,0,chair1-elephant1.png,
gauss_4_sup_RN50_gauss_0_for_60_epoch25,1,648,NaN,oven,chair,0,chair1-oven3.png,
gauss_4_sup_RN50_gauss_0_for_60_epoch25,1,649,NaN,bottle,chair,0,chair1-truck3.png,
gauss_4_sup_RN50_gauss_0_for_60_epoch25,1,650,NaN,bottle,chair,0,chair10-airplane2.png,
gauss_4_sup_RN50_gauss_0_for_60_epoch25,1,651,NaN,bottle,chair,0,chair10-bicycle1.png,
gauss_4_sup_RN50_gauss_0_for_60_epoch25,1,652,NaN,bottle,chair,0,chair10-bird3.png,
gauss_4_sup_RN50_gauss_0_for_60_epoch25,1,653,NaN,bottle,chair,0,chair10-bottle3.png,
gauss_4_sup_RN50_gauss_0_for_60_epoch25,1,654,NaN,bottle,chair,0,chair10-car2.png,
gauss_4_sup_RN50_gauss_0_for_60_epoch25,1,655,NaN,dog,chair,0,chair10-cat1.png,
gauss_4_sup_RN50_gauss_0_for_60_epoch25,1,656,NaN,bottle,chair,0,chair10-clock1.png,
gauss_4_sup_RN50_gauss_0_for_60_epoch25,1,657,NaN,elephant,chair,0,chair10-dog1.png,
gauss_4_sup_RN50_gauss_0_for_60_epoch25,1,658,NaN,bottle,chair,0,chair10-oven1.png,
gauss_4_sup_RN50_gauss_0_for_60_epoch25,1,659,NaN,cat,chair,0,chair2-bear2.png,
gauss_4_sup_RN50_gauss_0_for_60_epoch25,1,660,NaN,chair,chair,0,chair2-boat1.png,
gauss_4_sup_RN50_gauss_0_for_60_epoch25,1,661,NaN,bottle,chair,0,chair2-keyboard2.png,
gauss_4_sup_RN50_gauss_0_for_60_epoch25,1,662,NaN,keyboard,chair,0,chair2-knife1.png,
gauss_4_sup_RN50_gauss_0_for_60_epoch25,1,663,NaN,bottle,chair,0,chair3-airplane2.png,
gauss_4_sup_RN50_gauss_0_for_60_epoch25,1,664,NaN,knife,chair,0,chair3-bicycle3.png,
gauss_4_sup_RN50_gauss_0_for_60_epoch25,1,665,NaN,bottle,chair,0,chair3-bottle3.png,
gauss_4_sup_RN50_gauss_0_for_60_epoch25,1,666,NaN,bottle,chair,0,chair3-car3.png,
gauss_4_sup_RN50_gauss_0_for_60_epoch25,1,667,NaN,dog,chair,0,chair3-dog2.png,
gauss_4_sup_RN50_gauss_0_for_60_epoch25,1,668,NaN,chair,chair,0,chair3-knife1.png,
gauss_4_sup_RN50_gauss_0_for_60_epoch25,1,669,NaN,dog,chair,0,chair4-bear2.png,
gauss_4_sup_RN50_gauss_0_for_60_epoch25,1,670,NaN,cat,chair,0,chair4-cat2.png,
gauss_4_sup_RN50_gauss_0_for_60_epoch25,1,671,NaN,bottle,chair,0,chair4-chair3.png,
gauss_4_sup_RN50_gauss_0_for_60_epoch25,1,672,NaN,dog,chair,0,chair4-keyboard2.png,
gauss_4_sup_RN50_gauss_0_for_60_epoch25,1,673,NaN,bottle,chair,0,chair4-oven2.png,
gauss_4_sup_RN50_gauss_0_for_60_epoch25,1,674,NaN,bottle,chair,0,chair4-truck2.png,
gauss_4_sup_RN50_gauss_0_for_60_epoch25,1,675,NaN,bicycle,chair,0,chair5-bicycle1.png,
gauss_4_sup_RN50_gauss_0_for_60_epoch25,1,676,NaN,bottle,chair,0,chair5-bird1.png,
gauss_4_sup_RN50_gauss_0_for_60_epoch25,1,677,NaN,bottle,chair,0,chair5-boat3.png,
gauss_4_sup_RN50_gauss_0_for_60_epoch25,1,678,NaN,bird,chair,0,chair5-bottle3.png,
gauss_4_sup_RN50_gauss_0_for_60_epoch25,1,679,NaN,bottle,chair,0,chair5-car1.png,
gauss_4_sup_RN50_gauss_0_for_60_epoch25,1,680,NaN,bottle,chair,0,chair5-cat3.png,
gauss_4_sup_RN50_gauss_0_for_60_epoch25,1,681,NaN,bottle,chair,0,chair5-clock2.png,
gauss_4_sup_RN50_gauss_0_for_60_epoch25,1,682,NaN,bottle,chair,0,chair5-keyboard2.png,
gauss_4_sup_RN50_gauss_0_for_60_epoch25,1,683,NaN,knife,chair,0,chair5-knife3.png,
gauss_4_sup_RN50_gauss_0_for_60_epoch25,1,684,NaN,chair,chair,0,chair5-oven2.png,
gauss_4_sup_RN50_gauss_0_for_60_epoch25,1,685,NaN,bottle,chair,0,chair5-truck3.png,
gauss_4_sup_RN50_gauss_0_for_60_epoch25,1,686,NaN,elephant,chair,0,chair6-bird2.png,
gauss_4_sup_RN50_gauss_0_for_60_epoch25,1,687,NaN,elephant,chair,0,chair6-dog1.png,
gauss_4_sup_RN50_gauss_0_for_60_epoch25,1,688,NaN,dog,chair,0,chair6-elephant2.png,
gauss_4_sup_RN50_gauss_0_for_60_epoch25,1,689,NaN,bottle,chair,0,chair6-truck2.png,
gauss_4_sup_RN50_gauss_0_for_60_epoch25,1,690,NaN,bottle,chair,0,chair7-airplane1.png,
gauss_4_sup_RN50_gauss_0_for_60_epoch25,1,691,NaN,bottle,chair,0,chair7-bird1.png,
gauss_4_sup_RN50_gauss_0_for_60_epoch25,1,692,NaN,bottle,chair,0,chair7-boat3.png,
gauss_4_sup_RN50_gauss_0_for_60_epoch25,1,693,NaN,chair,chair,0,chair7-bottle1.png,
gauss_4_sup_RN50_gauss_0_for_60_epoch25,1,694,NaN,bottle,chair,0,chair7-car2.png,
gauss_4_sup_RN50_gauss_0_for_60_epoch25,1,695,NaN,bottle,chair,0,chair7-cat1.png,
gauss_4_sup_RN50_gauss_0_for_60_epoch25,1,696,NaN,chair,chair,0,chair7-chair1.png,
gauss_4_sup_RN50_gauss_0_for_60_epoch25,1,697,NaN,chair,chair,0,chair7-clock3.png,
gauss_4_sup_RN50_gauss_0_for_60_epoch25,1,698,NaN,bottle,chair,0,chair7-elephant1.png,
gauss_4_sup_RN50_gauss_0_for_60_epoch25,1,699,NaN,knife,chair,0,chair7-knife2.png,
gauss_4_sup_RN50_gauss_0_for_60_epoch25,1,700,NaN,bottle,chair,0,chair7-truck3.png,
gauss_4_sup_RN50_gauss_0_for_60_epoch25,1,701,NaN,bottle,chair,0,chair8-airplane1.png,
gauss_4_sup_RN50_gauss_0_for_60_epoch25,1,702,NaN,cat,chair,0,chair8-bear1.png,
gauss_4_sup_RN50_gauss_0_for_60_epoch25,1,703,NaN,bottle,chair,0,chair8-bicycle3.png,
gauss_4_sup_RN50_gauss_0_for_60_epoch25,1,704,NaN,bottle,chair,0,chair8-boat1.png,
gauss_4_sup_RN50_gauss_0_for_60_epoch25,1,705,NaN,bottle,chair,0,chair8-car1.png,
gauss_4_sup_RN50_gauss_0_for_60_epoch25,1,706,NaN,bottle,chair,0,chair8-chair3.png,
gauss_4_sup_RN50_gauss_0_for_60_epoch25,1,707,NaN,bottle,chair,0,chair8-clock3.png,
gauss_4_sup_RN50_gauss_0_for_60_epoch25,1,708,NaN,elephant,chair,0,chair8-elephant1.png,
gauss_4_sup_RN50_gauss_0_for_60_epoch25,1,709,NaN,dog,chair,0,chair8-keyboard3.png,
gauss_4_sup_RN50_gauss_0_for_60_epoch25,1,710,NaN,bottle,chair,0,chair8-knife2.png,
gauss_4_sup_RN50_gauss_0_for_60_epoch25,1,711,NaN,bottle,chair,0,chair8-oven1.png,
gauss_4_sup_RN50_gauss_0_for_60_epoch25,1,712,NaN,cat,chair,0,chair9-bear1.png,
gauss_4_sup_RN50_gauss_0_for_60_epoch25,1,713,NaN,chair,chair,0,chair9-bicycle3.png,
gauss_4_sup_RN50_gauss_0_for_60_epoch25,1,714,NaN,bottle,chair,0,chair9-bird3.png,
gauss_4_sup_RN50_gauss_0_for_60_epoch25,1,715,NaN,oven,chair,0,chair9-boat2.png,
gauss_4_sup_RN50_gauss_0_for_60_epoch25,1,716,NaN,cat,chair,0,chair9-bottle3.png,
gauss_4_sup_RN50_gauss_0_for_60_epoch25,1,717,NaN,bottle,chair,0,chair9-chair3.png,
gauss_4_sup_RN50_gauss_0_for_60_epoch25,1,718,NaN,dog,chair,0,chair9-dog2.png,
gauss_4_sup_RN50_gauss_0_for_60_epoch25,1,719,NaN,bottle,chair,0,chair9-elephant1.png,
gauss_4_sup_RN50_gauss_0_for_60_epoch25,1,720,NaN,bottle,chair,0,chair9-keyboard2.png,
gauss_4_sup_RN50_gauss_0_for_60_epoch25,1,721,NaN,knife,clock,0,clock1-bear1.png,
gauss_4_sup_RN50_gauss_0_for_60_epoch25,1,722,NaN,bottle,clock,0,clock1-boat3.png,
gauss_4_sup_RN50_gauss_0_for_60_epoch25,1,723,NaN,chair,clock,0,clock1-car1.png,
gauss_4_sup_RN50_gauss_0_for_60_epoch25,1,724,NaN,keyboard,clock,0,clock1-clock2.png,
gauss_4_sup_RN50_gauss_0_for_60_epoch25,1,725,NaN,cat,clock,0,clock1-dog2.png,
gauss_4_sup_RN50_gauss_0_for_60_epoch25,1,726,NaN,elephant,clock,0,clock1-elephant2.png,
gauss_4_sup_RN50_gauss_0_for_60_epoch25,1,727,NaN,keyboard,clock,0,clock1-truck3.png,
gauss_4_sup_RN50_gauss_0_for_60_epoch25,1,728,NaN,bottle,clock,0,clock10-airplane1.png,
gauss_4_sup_RN50_gauss_0_for_60_epoch25,1,729,NaN,bottle,clock,0,clock10-bird3.png,
gauss_4_sup_RN50_gauss_0_for_60_epoch25,1,730,NaN,clock,clock,0,clock10-boat2.png,
gauss_4_sup_RN50_gauss_0_for_60_epoch25,1,731,NaN,bear,clock,0,clock10-bottle1.png,
gauss_4_sup_RN50_gauss_0_for_60_epoch25,1,732,NaN,dog,clock,0,clock10-cat1.png,
gauss_4_sup_RN50_gauss_0_for_60_epoch25,1,733,NaN,clock,clock,0,clock10-clock3.png,
gauss_4_sup_RN50_gauss_0_for_60_epoch25,1,734,NaN,bottle,clock,0,clock10-dog3.png,
gauss_4_sup_RN50_gauss_0_for_60_epoch25,1,735,NaN,bottle,clock,0,clock10-knife3.png,
gauss_4_sup_RN50_gauss_0_for_60_epoch25,1,736,NaN,bottle,clock,0,clock10-oven2.png,
gauss_4_sup_RN50_gauss_0_for_60_epoch25,1,737,NaN,bottle,clock,0,clock10-truck2.png,
gauss_4_sup_RN50_gauss_0_for_60_epoch25,1,738,NaN,clock,clock,0,clock2-bear2.png,
gauss_4_sup_RN50_gauss_0_for_60_epoch25,1,739,NaN,clock,clock,0,clock2-bicycle1.png,
gauss_4_sup_RN50_gauss_0_for_60_epoch25,1,740,NaN,clock,clock,0,clock2-bottle3.png,
gauss_4_sup_RN50_gauss_0_for_60_epoch25,1,741,NaN,clock,clock,0,clock2-clock3.png,
gauss_4_sup_RN50_gauss_0_for_60_epoch25,1,742,NaN,keyboard,clock,0,clock2-dog1.png,
gauss_4_sup_RN50_gauss_0_for_60_epoch25,1,743,NaN,bottle,clock,0,clock2-elephant2.png,
gauss_4_sup_RN50_gauss_0_for_60_epoch25,1,744,NaN,bottle,clock,0,clock2-knife1.png,
gauss_4_sup_RN50_gauss_0_for_60_epoch25,1,745,NaN,keyboard,clock,0,clock3-bear3.png,
gauss_4_sup_RN50_gauss_0_for_60_epoch25,1,746,NaN,bottle,clock,0,clock3-bicycle2.png,
gauss_4_sup_RN50_gauss_0_for_60_epoch25,1,747,NaN,bottle,clock,0,clock3-bird1.png,
gauss_4_sup_RN50_gauss_0_for_60_epoch25,1,748,NaN,clock,clock,0,clock3-car2.png,
gauss_4_sup_RN50_gauss_0_for_60_epoch25,1,749,NaN,bottle,clock,0,clock3-cat1.png,
gauss_4_sup_RN50_gauss_0_for_60_epoch25,1,750,NaN,bottle,clock,0,clock3-dog2.png,
gauss_4_sup_RN50_gauss_0_for_60_epoch25,1,751,NaN,bottle,clock,0,clock3-elephant3.png,
gauss_4_sup_RN50_gauss_0_for_60_epoch25,1,752,NaN,bottle,clock,0,clock3-keyboard3.png,
gauss_4_sup_RN50_gauss_0_for_60_epoch25,1,753,NaN,clock,clock,0,clock4-airplane1.png,
gauss_4_sup_RN50_gauss_0_for_60_epoch25,1,754,NaN,bottle,clock,0,clock4-bird3.png,
gauss_4_sup_RN50_gauss_0_for_60_epoch25,1,755,NaN,bottle,clock,0,clock4-boat3.png,
gauss_4_sup_RN50_gauss_0_for_60_epoch25,1,756,NaN,bottle,clock,0,clock4-bottle3.png,
gauss_4_sup_RN50_gauss_0_for_60_epoch25,1,757,NaN,boat,clock,0,clock4-car2.png,
gauss_4_sup_RN50_gauss_0_for_60_epoch25,1,758,NaN,clock,clock,0,clock4-chair1.png,
gauss_4_sup_RN50_gauss_0_for_60_epoch25,1,759,NaN,elephant,clock,0,clock4-elephant2.png,
gauss_4_sup_RN50_gauss_0_for_60_epoch25,1,760,NaN,bottle,clock,0,clock4-knife1.png,
gauss_4_sup_RN50_gauss_0_for_60_epoch25,1,761,NaN,bottle,clock,0,clock4-oven1.png,
gauss_4_sup_RN50_gauss_0_for_60_epoch25,1,762,NaN,clock,clock,0,clock5-airplane1.png,
gauss_4_sup_RN50_gauss_0_for_60_epoch25,1,763,NaN,clock,clock,0,clock5-bicycle1.png,
gauss_4_sup_RN50_gauss_0_for_60_epoch25,1,764,NaN,bottle,clock,0,clock5-chair3.png,
gauss_4_sup_RN50_gauss_0_for_60_epoch25,1,765,NaN,clock,clock,0,clock5-clock2.png,
gauss_4_sup_RN50_gauss_0_for_60_epoch25,1,766,NaN,bottle,clock,0,clock5-elephant2.png,
gauss_4_sup_RN50_gauss_0_for_60_epoch25,1,767,NaN,bottle,clock,0,clock5-keyboard1.png,
gauss_4_sup_RN50_gauss_0_for_60_epoch25,1,768,NaN,bottle,clock,0,clock5-oven1.png,
gauss_4_sup_RN50_gauss_0_for_60_epoch25,1,769,NaN,clock,clock,0,clock6-bicycle1.png,
gauss_4_sup_RN50_gauss_0_for_60_epoch25,1,770,NaN,bottle,clock,0,clock6-bird3.png,
gauss_4_sup_RN50_gauss_0_for_60_epoch25,1,771,NaN,clock,clock,0,clock6-bottle1.png,
gauss_4_sup_RN50_gauss_0_for_60_epoch25,1,772,NaN,car,clock,0,clock6-car2.png,
gauss_4_sup_RN50_gauss_0_for_60_epoch25,1,773,NaN,bottle,clock,0,clock6-chair3.png,
gauss_4_sup_RN50_gauss_0_for_60_epoch25,1,774,NaN,bottle,clock,0,clock6-clock2.png,
gauss_4_sup_RN50_gauss_0_for_60_epoch25,1,775,NaN,bottle,clock,0,clock6-knife2.png,
gauss_4_sup_RN50_gauss_0_for_60_epoch25,1,776,NaN,bottle,clock,0,clock6-oven1.png,
gauss_4_sup_RN50_gauss_0_for_60_epoch25,1,777,NaN,bottle,clock,0,clock6-truck3.png,
gauss_4_sup_RN50_gauss_0_for_60_epoch25,1,778,NaN,bottle,clock,0,clock7-bear2.png,
gauss_4_sup_RN50_gauss_0_for_60_epoch25,1,779,NaN,bottle,clock,0,clock7-bicycle1.png,
gauss_4_sup_RN50_gauss_0_for_60_epoch25,1,780,NaN,bottle,clock,0,clock7-boat3.png,
gauss_4_sup_RN50_gauss_0_for_60_epoch25,1,781,NaN,bottle,clock,0,clock7-bottle2.png,
gauss_4_sup_RN50_gauss_0_for_60_epoch25,1,782,NaN,bottle,clock,0,clock7-car1.png,
gauss_4_sup_RN50_gauss_0_for_60_epoch25,1,783,NaN,bottle,clock,0,clock7-cat2.png,
gauss_4_sup_RN50_gauss_0_for_60_epoch25,1,784,NaN,bottle,clock,0,clock7-dog2.png,
gauss_4_sup_RN50_gauss_0_for_60_epoch25,1,785,NaN,bottle,clock,0,clock7-keyboard2.png,
gauss_4_sup_RN50_gauss_0_for_60_epoch25,1,786,NaN,bottle,clock,0,clock7-truck3.png,
gauss_4_sup_RN50_gauss_0_for_60_epoch25,1,787,NaN,bottle,clock,0,clock8-airplane2.png,
gauss_4_sup_RN50_gauss_0_for_60_epoch25,1,788,NaN,clock,clock,0,clock8-bear2.png,
gauss_4_sup_RN50_gauss_0_for_60_epoch25,1,789,NaN,bottle,clock,0,clock8-boat1.png,
gauss_4_sup_RN50_gauss_0_for_60_epoch25,1,790,NaN,dog,clock,0,clock8-cat1.png,
gauss_4_sup_RN50_gauss_0_for_60_epoch25,1,791,NaN,bottle,clock,0,clock8-chair2.png,
gauss_4_sup_RN50_gauss_0_for_60_epoch25,1,792,NaN,bottle,clock,0,clock8-keyboard1.png,
gauss_4_sup_RN50_gauss_0_for_60_epoch25,1,793,NaN,dog,clock,0,clock8-knife1.png,
gauss_4_sup_RN50_gauss_0_for_60_epoch25,1,794,NaN,clock,clock,0,clock8-oven3.png,
gauss_4_sup_RN50_gauss_0_for_60_epoch25,1,795,NaN,bottle,clock,0,clock8-truck2.png,
gauss_4_sup_RN50_gauss_0_for_60_epoch25,1,796,NaN,clock,clock,0,clock9-airplane1.png,
gauss_4_sup_RN50_gauss_0_for_60_epoch25,1,797,NaN,bottle,clock,0,clock9-bird2.png,
gauss_4_sup_RN50_gauss_0_for_60_epoch25,1,798,NaN,bottle,clock,0,clock9-cat1.png,
gauss_4_sup_RN50_gauss_0_for_60_epoch25,1,799,NaN,bottle,clock,0,clock9-chair3.png,
gauss_4_sup_RN50_gauss_0_for_60_epoch25,1,800,NaN,bottle,clock,0,clock9-keyboard2.png,
gauss_4_sup_RN50_gauss_0_for_60_epoch25,1,801,NaN,dog,dog,0,dog1-airplane3.png,
gauss_4_sup_RN50_gauss_0_for_60_epoch25,1,802,NaN,dog,dog,0,dog1-bear1.png,
gauss_4_sup_RN50_gauss_0_for_60_epoch25,1,803,NaN,dog,dog,0,dog1-bird1.png,
gauss_4_sup_RN50_gauss_0_for_60_epoch25,1,804,NaN,bottle,dog,0,dog1-boat3.png,
gauss_4_sup_RN50_gauss_0_for_60_epoch25,1,805,NaN,bottle,dog,0,dog1-car2.png,
gauss_4_sup_RN50_gauss_0_for_60_epoch25,1,806,NaN,dog,dog,0,dog1-cat3.png,
gauss_4_sup_RN50_gauss_0_for_60_epoch25,1,807,NaN,dog,dog,0,dog1-chair1.png,
gauss_4_sup_RN50_gauss_0_for_60_epoch25,1,808,NaN,dog,dog,0,dog1-dog2.png,
gauss_4_sup_RN50_gauss_0_for_60_epoch25,1,809,NaN,dog,dog,0,dog1-knife3.png,
gauss_4_sup_RN50_gauss_0_for_60_epoch25,1,810,NaN,bottle,dog,0,dog10-airplane1.png,
gauss_4_sup_RN50_gauss_0_for_60_epoch25,1,811,NaN,dog,dog,0,dog10-bicycle1.png,
gauss_4_sup_RN50_gauss_0_for_60_epoch25,1,812,NaN,chair,dog,0,dog10-bottle1.png,
gauss_4_sup_RN50_gauss_0_for_60_epoch25,1,813,NaN,bottle,dog,0,dog10-car3.png,
gauss_4_sup_RN50_gauss_0_for_60_epoch25,1,814,NaN,dog,dog,0,dog10-clock1.png,
gauss_4_sup_RN50_gauss_0_for_60_epoch25,1,815,NaN,elephant,dog,0,dog10-dog1.png,
gauss_4_sup_RN50_gauss_0_for_60_epoch25,1,816,NaN,elephant,dog,0,dog10-elephant1.png,
gauss_4_sup_RN50_gauss_0_for_60_epoch25,1,817,NaN,bottle,dog,0,dog10-keyboard2.png,
gauss_4_sup_RN50_gauss_0_for_60_epoch25,1,818,NaN,bottle,dog,0,dog10-oven2.png,
gauss_4_sup_RN50_gauss_0_for_60_epoch25,1,819,NaN,bottle,dog,0,dog10-truck2.png,
gauss_4_sup_RN50_gauss_0_for_60_epoch25,1,820,NaN,bottle,dog,0,dog2-airplane2.png,
gauss_4_sup_RN50_gauss_0_for_60_epoch25,1,821,NaN,dog,dog,0,dog2-bicycle2.png,
gauss_4_sup_RN50_gauss_0_for_60_epoch25,1,822,NaN,dog,dog,0,dog2-bottle2.png,
gauss_4_sup_RN50_gauss_0_for_60_epoch25,1,823,NaN,dog,dog,0,dog2-cat1.png,
gauss_4_sup_RN50_gauss_0_for_60_epoch25,1,824,NaN,dog,dog,0,dog2-dog3.png,
gauss_4_sup_RN50_gauss_0_for_60_epoch25,1,825,NaN,dog,dog,0,dog2-knife3.png,
gauss_4_sup_RN50_gauss_0_for_60_epoch25,1,826,NaN,dog,dog,0,dog3-bear3.png,
gauss_4_sup_RN50_gauss_0_for_60_epoch25,1,827,NaN,dog,dog,0,dog3-bird2.png,
gauss_4_sup_RN50_gauss_0_for_60_epoch25,1,828,NaN,bottle,dog,0,dog3-boat1.png,
gauss_4_sup_RN50_gauss_0_for_60_epoch25,1,829,NaN,bottle,dog,0,dog3-clock1.png,
gauss_4_sup_RN50_gauss_0_for_60_epoch25,1,830,NaN,dog,dog,0,dog3-dog1.png,
gauss_4_sup_RN50_gauss_0_for_60_epoch25,1,831,NaN,dog,dog,0,dog3-elephant2.png,
gauss_4_sup_RN50_gauss_0_for_60_epoch25,1,832,NaN,dog,dog,0,dog3-keyboard1.png,
gauss_4_sup_RN50_gauss_0_for_60_epoch25,1,833,NaN,dog,dog,0,dog3-knife3.png,
gauss_4_sup_RN50_gauss_0_for_60_epoch25,1,834,NaN,bottle,dog,0,dog3-truck2.png,
gauss_4_sup_RN50_gauss_0_for_60_epoch25,1,835,NaN,dog,dog,0,dog4-airplane3.png,
gauss_4_sup_RN50_gauss_0_for_60_epoch25,1,836,NaN,bottle,dog,0,dog4-bicycle1.png,
gauss_4_sup_RN50_gauss_0_for_60_epoch25,1,837,NaN,dog,dog,0,dog4-bird1.png,
gauss_4_sup_RN50_gauss_0_for_60_epoch25,1,838,NaN,bicycle,dog,0,dog4-bottle2.png,
gauss_4_sup_RN50_gauss_0_for_60_epoch25,1,839,NaN,bottle,dog,0,dog4-cat3.png,
gauss_4_sup_RN50_gauss_0_for_60_epoch25,1,840,NaN,bottle,dog,0,dog4-chair1.png,
gauss_4_sup_RN50_gauss_0_for_60_epoch25,1,841,NaN,bottle,dog,0,dog4-clock1.png,
gauss_4_sup_RN50_gauss_0_for_60_epoch25,1,842,NaN,dog,dog,0,dog4-elephant2.png,
gauss_4_sup_RN50_gauss_0_for_60_epoch25,1,843,NaN,bottle,dog,0,dog4-keyboard2.png,
gauss_4_sup_RN50_gauss_0_for_60_epoch25,1,844,NaN,bottle,dog,0,dog4-oven1.png,
gauss_4_sup_RN50_gauss_0_for_60_epoch25,1,845,NaN,bottle,dog,0,dog4-truck2.png,
gauss_4_sup_RN50_gauss_0_for_60_epoch25,1,846,NaN,dog,dog,0,dog5-bear3.png,
gauss_4_sup_RN50_gauss_0_for_60_epoch25,1,847,NaN,bottle,dog,0,dog5-boat3.png,
gauss_4_sup_RN50_gauss_0_for_60_epoch25,1,848,NaN,bird,dog,0,dog5-car3.png,
gauss_4_sup_RN50_gauss_0_for_60_epoch25,1,849,NaN,dog,dog,0,dog5-elephant1.png,
gauss_4_sup_RN50_gauss_0_for_60_epoch25,1,850,NaN,bottle,dog,0,dog5-knife2.png,
gauss_4_sup_RN50_gauss_0_for_60_epoch25,1,851,NaN,bottle,dog,0,dog5-oven1.png,
gauss_4_sup_RN50_gauss_0_for_60_epoch25,1,852,NaN,bottle,dog,0,dog5-truck2.png,
gauss_4_sup_RN50_gauss_0_for_60_epoch25,1,853,NaN,bottle,dog,0,dog6-bicycle1.png,
gauss_4_sup_RN50_gauss_0_for_60_epoch25,1,854,NaN,dog,dog,0,dog6-bird1.png,
gauss_4_sup_RN50_gauss_0_for_60_epoch25,1,855,NaN,dog,dog,0,dog6-cat1.png,
gauss_4_sup_RN50_gauss_0_for_60_epoch25,1,856,NaN,bottle,dog,0,dog6-clock1.png,
gauss_4_sup_RN50_gauss_0_for_60_epoch25,1,857,NaN,dog,dog,0,dog6-elephant2.png,
gauss_4_sup_RN50_gauss_0_for_60_epoch25,1,858,NaN,bottle,dog,0,dog6-truck2.png,
gauss_4_sup_RN50_gauss_0_for_60_epoch25,1,859,NaN,dog,dog,0,dog7-bird3.png,
gauss_4_sup_RN50_gauss_0_for_60_epoch25,1,860,NaN,bicycle,dog,0,dog7-car2.png,
gauss_4_sup_RN50_gauss_0_for_60_epoch25,1,861,NaN,bottle,dog,0,dog7-chair2.png,
gauss_4_sup_RN50_gauss_0_for_60_epoch25,1,862,NaN,bottle,dog,0,dog7-keyboard3.png,
gauss_4_sup_RN50_gauss_0_for_60_epoch25,1,863,NaN,dog,dog,0,dog7-knife3.png,
gauss_4_sup_RN50_gauss_0_for_60_epoch25,1,864,NaN,bottle,dog,0,dog7-oven2.png,
gauss_4_sup_RN50_gauss_0_for_60_epoch25,1,865,NaN,dog,dog,0,dog8-bear3.png,
gauss_4_sup_RN50_gauss_0_for_60_epoch25,1,866,NaN,bottle,dog,0,dog8-boat3.png,
gauss_4_sup_RN50_gauss_0_for_60_epoch25,1,867,NaN,bottle,dog,0,dog8-bottle2.png,
gauss_4_sup_RN50_gauss_0_for_60_epoch25,1,868,NaN,bottle,dog,0,dog8-chair3.png,
gauss_4_sup_RN50_gauss_0_for_60_epoch25,1,869,NaN,dog,dog,0,dog8-clock2.png,
gauss_4_sup_RN50_gauss_0_for_60_epoch25,1,870,NaN,dog,dog,0,dog8-dog3.png,
gauss_4_sup_RN50_gauss_0_for_60_epoch25,1,871,NaN,bottle,dog,0,dog8-keyboard3.png,
gauss_4_sup_RN50_gauss_0_for_60_epoch25,1,872,NaN,bottle,dog,0,dog8-oven3.png,
gauss_4_sup_RN50_gauss_0_for_60_epoch25,1,873,NaN,bottle,dog,0,dog9-airplane3.png,
gauss_4_sup_RN50_gauss_0_for_60_epoch25,1,874,NaN,dog,dog,0,dog9-bear3.png,
gauss_4_sup_RN50_gauss_0_for_60_epoch25,1,875,NaN,knife,dog,0,dog9-bicycle3.png,
gauss_4_sup_RN50_gauss_0_for_60_epoch25,1,876,NaN,bottle,dog,0,dog9-boat1.png,
gauss_4_sup_RN50_gauss_0_for_60_epoch25,1,877,NaN,dog,dog,0,dog9-bottle1.png,
gauss_4_sup_RN50_gauss_0_for_60_epoch25,1,878,NaN,bottle,dog,0,dog9-car1.png,
gauss_4_sup_RN50_gauss_0_for_60_epoch25,1,879,NaN,dog,dog,0,dog9-cat1.png,
gauss_4_sup_RN50_gauss_0_for_60_epoch25,1,880,NaN,oven,dog,0,dog9-chair2.png,
gauss_4_sup_RN50_gauss_0_for_60_epoch25,1,881,NaN,bottle,elephant,0,elephant1-airplane2.png,
gauss_4_sup_RN50_gauss_0_for_60_epoch25,1,882,NaN,elephant,elephant,0,elephant1-bear2.png,
gauss_4_sup_RN50_gauss_0_for_60_epoch25,1,883,NaN,bottle,elephant,0,elephant1-boat2.png,
gauss_4_sup_RN50_gauss_0_for_60_epoch25,1,884,NaN,elephant,elephant,0,elephant1-bottle1.png,
gauss_4_sup_RN50_gauss_0_for_60_epoch25,1,885,NaN,bottle,elephant,0,elephant1-car3.png,
gauss_4_sup_RN50_gauss_0_for_60_epoch25,1,886,NaN,bottle,elephant,0,elephant1-chair1.png,
gauss_4_sup_RN50_gauss_0_for_60_epoch25,1,887,NaN,dog,elephant,0,elephant1-dog2.png,
gauss_4_sup_RN50_gauss_0_for_60_epoch25,1,888,NaN,bottle,elephant,0,elephant1-keyboard3.png,
gauss_4_sup_RN50_gauss_0_for_60_epoch25,1,889,NaN,bottle,elephant,0,elephant1-oven2.png,
gauss_4_sup_RN50_gauss_0_for_60_epoch25,1,890,NaN,dog,elephant,0,elephant10-bear1.png,
gauss_4_sup_RN50_gauss_0_for_60_epoch25,1,891,NaN,elephant,elephant,0,elephant10-elephant1.png,
gauss_4_sup_RN50_gauss_0_for_60_epoch25,1,892,NaN,dog,elephant,0,elephant10-keyboard1.png,
gauss_4_sup_RN50_gauss_0_for_60_epoch25,1,893,NaN,cat,elephant,0,elephant10-knife3.png,
gauss_4_sup_RN50_gauss_0_for_60_epoch25,1,894,NaN,bottle,elephant,0,elephant2-airplane3.png,
gauss_4_sup_RN50_gauss_0_for_60_epoch25,1,895,NaN,dog,elephant,0,elephant2-bear3.png,
gauss_4_sup_RN50_gauss_0_for_60_epoch25,1,896,NaN,dog,elephant,0,elephant2-bird1.png,
gauss_4_sup_RN50_gauss_0_for_60_epoch25,1,897,NaN,bottle,elephant,0,elephant2-boat1.png,
gauss_4_sup_RN50_gauss_0_for_60_epoch25,1,898,NaN,cat,elephant,0,elephant2-bottle3.png,
gauss_4_sup_RN50_gauss_0_for_60_epoch25,1,899,NaN,dog,elephant,0,elephant2-cat1.png,
gauss_4_sup_RN50_gauss_0_for_60_epoch25,1,900,NaN,bottle,elephant,0,elephant2-clock1.png,
gauss_4_sup_RN50_gauss_0_for_60_epoch25,1,901,NaN,cat,elephant,0,elephant2-elephant3.png,
gauss_4_sup_RN50_gauss_0_for_60_epoch25,1,902,NaN,dog,elephant,0,elephant2-keyboard3.png,
gauss_4_sup_RN50_gauss_0_for_60_epoch25,1,903,NaN,bottle,elephant,0,elephant2-truck2.png,
gauss_4_sup_RN50_gauss_0_for_60_epoch25,1,904,NaN,cat,elephant,0,elephant3-cat2.png,
gauss_4_sup_RN50_gauss_0_for_60_epoch25,1,905,NaN,bottle,elephant,0,elephant3-chair1.png,
gauss_4_sup_RN50_gauss_0_for_60_epoch25,1,906,NaN,bottle,elephant,0,elephant3-keyboard2.png,
gauss_4_sup_RN50_gauss_0_for_60_epoch25,1,907,NaN,bottle,elephant,0,elephant3-knife1.png,
gauss_4_sup_RN50_gauss_0_for_60_epoch25,1,908,NaN,bottle,elephant,0,elephant3-oven1.png,
gauss_4_sup_RN50_gauss_0_for_60_epoch25,1,909,NaN,bottle,elephant,0,elephant3-truck1.png,
gauss_4_sup_RN50_gauss_0_for_60_epoch25,1,910,NaN,elephant,elephant,0,elephant4-bicycle2.png,
gauss_4_sup_RN50_gauss_0_for_60_epoch25,1,911,NaN,airplane,elephant,0,elephant4-bird1.png,
gauss_4_sup_RN50_gauss_0_for_60_epoch25,1,912,NaN,bottle,elephant,0,elephant4-boat3.png,
gauss_4_sup_RN50_gauss_0_for_60_epoch25,1,913,NaN,bottle,elephant,0,elephant4-car3.png,
gauss_4_sup_RN50_gauss_0_for_60_epoch25,1,914,NaN,bottle,elephant,0,elephant4-chair3.png,
gauss_4_sup_RN50_gauss_0_for_60_epoch25,1,915,NaN,elephant,elephant,0,elephant4-clock3.png,
gauss_4_sup_RN50_gauss_0_for_60_epoch25,1,916,NaN,bottle,elephant,0,elephant4-oven1.png,
gauss_4_sup_RN50_gauss_0_for_60_epoch25,1,917,NaN,bear,elephant,0,elephant5-bear2.png,
gauss_4_sup_RN50_gauss_0_for_60_epoch25,1,918,NaN,dog,elephant,0,elephant5-bicycle3.png,
gauss_4_sup_RN50_gauss_0_for_60_epoch25,1,919,NaN,dog,elephant,0,elephant5-bottle2.png,
gauss_4_sup_RN50_gauss_0_for_60_epoch25,1,920,NaN,chair,elephant,0,elephant5-car1.png,
gauss_4_sup_RN50_gauss_0_for_60_epoch25,1,921,NaN,bottle,elephant,0,elephant5-chair3.png,
gauss_4_sup_RN50_gauss_0_for_60_epoch25,1,922,NaN,elephant,elephant,0,elephant5-elephant1.png,
gauss_4_sup_RN50_gauss_0_for_60_epoch25,1,923,NaN,bottle,elephant,0,elephant5-truck1.png,
gauss_4_sup_RN50_gauss_0_for_60_epoch25,1,924,NaN,bear,elephant,0,elephant6-bicycle1.png,
gauss_4_sup_RN50_gauss_0_for_60_epoch25,1,925,NaN,cat,elephant,0,elephant6-bird1.png,
gauss_4_sup_RN50_gauss_0_for_60_epoch25,1,926,NaN,elephant,elephant,0,elephant6-bottle2.png,
gauss_4_sup_RN50_gauss_0_for_60_epoch25,1,927,NaN,bird,elephant,0,elephant6-car3.png,
gauss_4_sup_RN50_gauss_0_for_60_epoch25,1,928,NaN,elephant,elephant,0,elephant6-cat2.png,
gauss_4_sup_RN50_gauss_0_for_60_epoch25,1,929,NaN,elephant,elephant,0,elephant6-dog2.png,
gauss_4_sup_RN50_gauss_0_for_60_epoch25,1,930,NaN,bottle,elephant,0,elephant6-knife2.png,
gauss_4_sup_RN50_gauss_0_for_60_epoch25,1,931,NaN,bottle,elephant,0,elephant6-oven1.png,
gauss_4_sup_RN50_gauss_0_for_60_epoch25,1,932,NaN,bottle,elephant,0,elephant6-truck3.png,
gauss_4_sup_RN50_gauss_0_for_60_epoch25,1,933,NaN,dog,elephant,0,elephant7-airplane3.png,
gauss_4_sup_RN50_gauss_0_for_60_epoch25,1,934,NaN,dog,elephant,0,elephant7-bear3.png,
gauss_4_sup_RN50_gauss_0_for_60_epoch25,1,935,NaN,bottle,elephant,0,elephant7-bird1.png,
gauss_4_sup_RN50_gauss_0_for_60_epoch25,1,936,NaN,bottle,elephant,0,elephant7-bottle3.png,
gauss_4_sup_RN50_gauss_0_for_60_epoch25,1,937,NaN,bottle,elephant,0,elephant7-car3.png,
gauss_4_sup_RN50_gauss_0_for_60_epoch25,1,938,NaN,dog,elephant,0,elephant7-cat1.png,
gauss_4_sup_RN50_gauss_0_for_60_epoch25,1,939,NaN,keyboard,elephant,0,elephant7-clock2.png,
gauss_4_sup_RN50_gauss_0_for_60_epoch25,1,940,NaN,dog,elephant,0,elephant7-dog1.png,
gauss_4_sup_RN50_gauss_0_for_60_epoch25,1,941,NaN,bottle,elephant,0,elephant7-keyboard3.png,
gauss_4_sup_RN50_gauss_0_for_60_epoch25,1,942,NaN,bottle,elephant,0,elephant7-knife2.png,
gauss_4_sup_RN50_gauss_0_for_60_epoch25,1,943,NaN,cat,elephant,0,elephant8-airplane3.png,
gauss_4_sup_RN50_gauss_0_for_60_epoch25,1,944,NaN,knife,elephant,0,elephant8-bicycle3.png,
gauss_4_sup_RN50_gauss_0_for_60_epoch25,1,945,NaN,dog,elephant,0,elephant8-bird2.png,
gauss_4_sup_RN50_gauss_0_for_60_epoch25,1,946,NaN,oven,elephant,0,elephant8-boat2.png,
gauss_4_sup_RN50_gauss_0_for_60_epoch25,1,947,NaN,dog,elephant,0,elephant8-cat1.png,
gauss_4_sup_RN50_gauss_0_for_60_epoch25,1,948,NaN,keyboard,elephant,0,elephant8-clock2.png,
gauss_4_sup_RN50_gauss_0_for_60_epoch25,1,949,NaN,dog,elephant,0,elephant8-dog1.png,
gauss_4_sup_RN50_gauss_0_for_60_epoch25,1,950,NaN,cat,elephant,0,elephant8-elephant1.png,
gauss_4_sup_RN50_gauss_0_for_60_epoch25,1,951,NaN,bottle,elephant,0,elephant8-knife2.png,
gauss_4_sup_RN50_gauss_0_for_60_epoch25,1,952,NaN,bottle,elephant,0,elephant8-oven3.png,
gauss_4_sup_RN50_gauss_0_for_60_epoch25,1,953,NaN,bottle,elephant,0,elephant8-truck3.png,
gauss_4_sup_RN50_gauss_0_for_60_epoch25,1,954,NaN,bottle,elephant,0,elephant9-airplane2.png,
gauss_4_sup_RN50_gauss_0_for_60_epoch25,1,955,NaN,elephant,elephant,0,elephant9-bicycle2.png,
gauss_4_sup_RN50_gauss_0_for_60_epoch25,1,956,NaN,bird,elephant,0,elephant9-boat3.png,
gauss_4_sup_RN50_gauss_0_for_60_epoch25,1,957,NaN,knife,elephant,0,elephant9-chair2.png,
gauss_4_sup_RN50_gauss_0_for_60_epoch25,1,958,NaN,elephant,elephant,0,elephant9-clock3.png,
gauss_4_sup_RN50_gauss_0_for_60_epoch25,1,959,NaN,dog,elephant,0,elephant9-dog3.png,
gauss_4_sup_RN50_gauss_0_for_60_epoch25,1,960,NaN,elephant,elephant,0,elephant9-elephant3.png,
gauss_4_sup_RN50_gauss_0_for_60_epoch25,1,961,NaN,bottle,keyboard,0,keyboard1-airplane2.png,
gauss_4_sup_RN50_gauss_0_for_60_epoch25,1,962,NaN,bear,keyboard,0,keyboard1-bear2.png,
gauss_4_sup_RN50_gauss_0_for_60_epoch25,1,963,NaN,dog,keyboard,0,keyboard1-bird2.png,
gauss_4_sup_RN50_gauss_0_for_60_epoch25,1,964,NaN,bottle,keyboard,0,keyboard1-car3.png,
gauss_4_sup_RN50_gauss_0_for_60_epoch25,1,965,NaN,knife,keyboard,0,keyboard1-chair2.png,
gauss_4_sup_RN50_gauss_0_for_60_epoch25,1,966,NaN,bottle,keyboard,0,keyboard1-clock1.png,
gauss_4_sup_RN50_gauss_0_for_60_epoch25,1,967,NaN,dog,keyboard,0,keyboard1-dog3.png,
gauss_4_sup_RN50_gauss_0_for_60_epoch25,1,968,NaN,dog,keyboard,0,keyboard1-elephant3.png,
gauss_4_sup_RN50_gauss_0_for_60_epoch25,1,969,NaN,knife,keyboard,0,keyboard10-airplane3.png,
gauss_4_sup_RN50_gauss_0_for_60_epoch25,1,970,NaN,knife,keyboard,0,keyboard10-boat2.png,
gauss_4_sup_RN50_gauss_0_for_60_epoch25,1,971,NaN,chair,keyboard,0,keyboard10-car1.png,
gauss_4_sup_RN50_gauss_0_for_60_epoch25,1,972,NaN,elephant,keyboard,0,keyboard10-keyboard1.png,
gauss_4_sup_RN50_gauss_0_for_60_epoch25,1,973,NaN,bottle,keyboard,0,keyboard10-oven3.png,
gauss_4_sup_RN50_gauss_0_for_60_epoch25,1,974,NaN,dog,keyboard,0,keyboard10-truck1.png,
gauss_4_sup_RN50_gauss_0_for_60_epoch25,1,975,NaN,knife,keyboard,0,keyboard2-bicycle3.png,
gauss_4_sup_RN50_gauss_0_for_60_epoch25,1,976,NaN,keyboard,keyboard,0,keyboard2-bottle1.png,
gauss_4_sup_RN50_gauss_0_for_60_epoch25,1,977,NaN,bottle,keyboard,0,keyboard2-clock1.png,
gauss_4_sup_RN50_gauss_0_for_60_epoch25,1,978,NaN,cat,keyboard,0,keyboard2-elephant1.png,
gauss_4_sup_RN50_gauss_0_for_60_epoch25,1,979,NaN,bottle,keyboard,0,keyboard2-knife1.png,
gauss_4_sup_RN50_gauss_0_for_60_epoch25,1,980,NaN,elephant,keyboard,0,keyboard3-bicycle2.png,
gauss_4_sup_RN50_gauss_0_for_60_epoch25,1,981,NaN,bottle,keyboard,0,keyboard3-bird3.png,
gauss_4_sup_RN50_gauss_0_for_60_epoch25,1,982,NaN,bottle,keyboard,0,keyboard3-boat1.png,
gauss_4_sup_RN50_gauss_0_for_60_epoch25,1,983,NaN,bottle,keyboard,0,keyboard3-car2.png,
gauss_4_sup_RN50_gauss_0_for_60_epoch25,1,984,NaN,cat,keyboard,0,keyboard3-cat1.png,
gauss_4_sup_RN50_gauss_0_for_60_epoch25,1,985,NaN,elephant,keyboard,0,keyboard3-clock3.png,
gauss_4_sup_RN50_gauss_0_for_60_epoch25,1,986,NaN,dog,keyboard,0,keyboard3-elephant2.png,
gauss_4_sup_RN50_gauss_0_for_60_epoch25,1,987,NaN,cat,keyboard,0,keyboard4-bird1.png,
gauss_4_sup_RN50_gauss_0_for_60_epoch25,1,988,NaN,bottle,keyboard,0,keyboard4-bottle2.png,
gauss_4_sup_RN50_gauss_0_for_60_epoch25,1,989,NaN,cat,keyboard,0,keyboard4-cat2.png,
gauss_4_sup_RN50_gauss_0_for_60_epoch25,1,990,NaN,cat,keyboard,0,keyboard4-clock2.png,
gauss_4_sup_RN50_gauss_0_for_60_epoch25,1,991,NaN,dog,keyboard,0,keyboard4-keyboard2.png,
gauss_4_sup_RN50_gauss_0_for_60_epoch25,1,992,NaN,bird,keyboard,0,keyboard4-knife2.png,
gauss_4_sup_RN50_gauss_0_for_60_epoch25,1,993,NaN,bottle,keyboard,0,keyboard4-oven2.png,
gauss_4_sup_RN50_gauss_0_for_60_epoch25,1,994,NaN,bottle,keyboard,0,keyboard4-truck3.png,
gauss_4_sup_RN50_gauss_0_for_60_epoch25,1,995,NaN,keyboard,keyboard,0,keyboard5-airplane3.png,
gauss_4_sup_RN50_gauss_0_for_60_epoch25,1,996,NaN,elephant,keyboard,0,keyboard5-bear3.png,
gauss_4_sup_RN50_gauss_0_for_60_epoch25,1,997,NaN,boat,keyboard,0,keyboard5-bicycle1.png,
gauss_4_sup_RN50_gauss_0_for_60_epoch25,1,998,NaN,keyboard,keyboard,0,keyboard5-bird3.png,
gauss_4_sup_RN50_gauss_0_for_60_epoch25,1,999,NaN,knife,keyboard,0,keyboard5-bottle1.png,
gauss_4_sup_RN50_gauss_0_for_60_epoch25,1,1000,NaN,knife,keyboard,0,keyboard5-cat1.png,
gauss_4_sup_RN50_gauss_0_for_60_epoch25,1,1001,NaN,knife,keyboard,0,keyboard5-dog3.png,
gauss_4_sup_RN50_gauss_0_for_60_epoch25,1,1002,NaN,keyboard,keyboard,0,keyboard5-keyboard1.png,
gauss_4_sup_RN50_gauss_0_for_60_epoch25,1,1003,NaN,knife,keyboard,0,keyboard5-knife2.png,
gauss_4_sup_RN50_gauss_0_for_60_epoch25,1,1004,NaN,elephant,keyboard,0,keyboard5-oven2.png,
gauss_4_sup_RN50_gauss_0_for_60_epoch25,1,1005,NaN,bear,keyboard,0,keyboard6-bear2.png,
gauss_4_sup_RN50_gauss_0_for_60_epoch25,1,1006,NaN,bottle,keyboard,0,keyboard6-bicycle1.png,
gauss_4_sup_RN50_gauss_0_for_60_epoch25,1,1007,NaN,knife,keyboard,0,keyboard6-boat2.png,
gauss_4_sup_RN50_gauss_0_for_60_epoch25,1,1008,NaN,bottle,keyboard,0,keyboard6-bottle2.png,
gauss_4_sup_RN50_gauss_0_for_60_epoch25,1,1009,NaN,bottle,keyboard,0,keyboard6-car2.png,
gauss_4_sup_RN50_gauss_0_for_60_epoch25,1,1010,NaN,car,keyboard,0,keyboard6-chair1.png,
gauss_4_sup_RN50_gauss_0_for_60_epoch25,1,1011,NaN,dog,keyboard,0,keyboard6-dog2.png,
gauss_4_sup_RN50_gauss_0_for_60_epoch25,1,1012,NaN,cat,keyboard,0,keyboard6-elephant1.png,
gauss_4_sup_RN50_gauss_0_for_60_epoch25,1,1013,NaN,knife,keyboard,0,keyboard6-knife2.png,
gauss_4_sup_RN50_gauss_0_for_60_epoch25,1,1014,NaN,bear,keyboard,0,keyboard7-bear2.png,
gauss_4_sup_RN50_gauss_0_for_60_epoch25,1,1015,NaN,knife,keyboard,0,keyboard7-boat2.png,
gauss_4_sup_RN50_gauss_0_for_60_epoch25,1,1016,NaN,knife,keyboard,0,keyboard7-bottle1.png,
gauss_4_sup_RN50_gauss_0_for_60_epoch25,1,1017,NaN,bottle,keyboard,0,keyboard7-car3.png,
gauss_4_sup_RN50_gauss_0_for_60_epoch25,1,1018,NaN,bear,keyboard,0,keyboard7-chair3.png,
gauss_4_sup_RN50_gauss_0_for_60_epoch25,1,1019,NaN,cat,keyboard,0,keyboard7-clock3.png,
gauss_4_sup_RN50_gauss_0_for_60_epoch25,1,1020,NaN,elephant,keyboard,0,keyboard7-dog1.png,
gauss_4_sup_RN50_gauss_0_for_60_epoch25,1,1021,NaN,keyboard,keyboard,0,keyboard7-knife1.png,
gauss_4_sup_RN50_gauss_0_for_60_epoch25,1,1022,NaN,keyboard,keyboard,0,keyboard7-oven2.png,
gauss_4_sup_RN50_gauss_0_for_60_epoch25,1,1023,NaN,chair,keyboard,0,keyboard7-truck2.png,
gauss_4_sup_RN50_gauss_0_for_60_epoch25,1,1024,NaN,keyboard,keyboard,0,keyboard8-airplane2.png,
gauss_4_sup_RN50_gauss_0_for_60_epoch25,1,1025,NaN,bottle,keyboard,0,keyboard8-cat3.png,
gauss_4_sup_RN50_gauss_0_for_60_epoch25,1,1026,NaN,oven,keyboard,0,keyboard8-chair2.png,
gauss_4_sup_RN50_gauss_0_for_60_epoch25,1,1027,NaN,dog,keyboard,0,keyboard8-dog3.png,
gauss_4_sup_RN50_gauss_0_for_60_epoch25,1,1028,NaN,keyboard,keyboard,0,keyboard8-keyboard2.png,
gauss_4_sup_RN50_gauss_0_for_60_epoch25,1,1029,NaN,keyboard,keyboard,0,keyboard8-oven1.png,
gauss_4_sup_RN50_gauss_0_for_60_epoch25,1,1030,NaN,bottle,keyboard,0,keyboard8-truck3.png,
gauss_4_sup_RN50_gauss_0_for_60_epoch25,1,1031,NaN,bottle,keyboard,0,keyboard9-airplane3.png,
gauss_4_sup_RN50_gauss_0_for_60_epoch25,1,1032,NaN,bear,keyboard,0,keyboard9-bear2.png,
gauss_4_sup_RN50_gauss_0_for_60_epoch25,1,1033,NaN,bottle,keyboard,0,keyboard9-bicycle2.png,
gauss_4_sup_RN50_gauss_0_for_60_epoch25,1,1034,NaN,dog,keyboard,0,keyboard9-bird1.png,
gauss_4_sup_RN50_gauss_0_for_60_epoch25,1,1035,NaN,bottle,keyboard,0,keyboard9-boat2.png,
gauss_4_sup_RN50_gauss_0_for_60_epoch25,1,1036,NaN,bottle,keyboard,0,keyboard9-cat1.png,
gauss_4_sup_RN50_gauss_0_for_60_epoch25,1,1037,NaN,bottle,keyboard,0,keyboard9-chair2.png,
gauss_4_sup_RN50_gauss_0_for_60_epoch25,1,1038,NaN,elephant,keyboard,0,keyboard9-elephant2.png,
gauss_4_sup_RN50_gauss_0_for_60_epoch25,1,1039,NaN,bottle,keyboard,0,keyboard9-keyboard2.png,
gauss_4_sup_RN50_gauss_0_for_60_epoch25,1,1040,NaN,bottle,keyboard,0,keyboard9-truck3.png,
gauss_4_sup_RN50_gauss_0_for_60_epoch25,1,1041,NaN,cat,knife,0,knife1-airplane1.png,
gauss_4_sup_RN50_gauss_0_for_60_epoch25,1,1042,NaN,knife,knife,0,knife1-bird2.png,
gauss_4_sup_RN50_gauss_0_for_60_epoch25,1,1043,NaN,bottle,knife,0,knife1-car3.png,
gauss_4_sup_RN50_gauss_0_for_60_epoch25,1,1044,NaN,bird,knife,0,knife1-chair1.png,
gauss_4_sup_RN50_gauss_0_for_60_epoch25,1,1045,NaN,bottle,knife,0,knife1-clock2.png,
gauss_4_sup_RN50_gauss_0_for_60_epoch25,1,1046,NaN,dog,knife,0,knife1-dog1.png,
gauss_4_sup_RN50_gauss_0_for_60_epoch25,1,1047,NaN,cat,knife,0,knife1-elephant1.png,
gauss_4_sup_RN50_gauss_0_for_60_epoch25,1,1048,NaN,dog,knife,0,knife1-keyboard3.png,
gauss_4_sup_RN50_gauss_0_for_60_epoch25,1,1049,NaN,bottle,knife,0,knife1-oven1.png,
gauss_4_sup_RN50_gauss_0_for_60_epoch25,1,1050,NaN,bottle,knife,0,knife1-truck2.png,
gauss_4_sup_RN50_gauss_0_for_60_epoch25,1,1051,NaN,dog,knife,0,knife10-bear3.png,
gauss_4_sup_RN50_gauss_0_for_60_epoch25,1,1052,NaN,clock,knife,0,knife10-chair1.png,
gauss_4_sup_RN50_gauss_0_for_60_epoch25,1,1053,NaN,dog,knife,0,knife10-dog1.png,
gauss_4_sup_RN50_gauss_0_for_60_epoch25,1,1054,NaN,elephant,knife,0,knife10-elephant3.png,
gauss_4_sup_RN50_gauss_0_for_60_epoch25,1,1055,NaN,bottle,knife,0,knife10-keyboard3.png,
gauss_4_sup_RN50_gauss_0_for_60_epoch25,1,1056,NaN,bottle,knife,0,knife10-knife1.png,
gauss_4_sup_RN50_gauss_0_for_60_epoch25,1,1057,NaN,truck,knife,0,knife10-oven3.png,
gauss_4_sup_RN50_gauss_0_for_60_epoch25,1,1058,NaN,dog,knife,0,knife2-bear2.png,
gauss_4_sup_RN50_gauss_0_for_60_epoch25,1,1059,NaN,knife,knife,0,knife2-bicycle3.png,
gauss_4_sup_RN50_gauss_0_for_60_epoch25,1,1060,NaN,bottle,knife,0,knife2-bird1.png,
gauss_4_sup_RN50_gauss_0_for_60_epoch25,1,1061,NaN,bottle,knife,0,knife2-bottle2.png,
gauss_4_sup_RN50_gauss_0_for_60_epoch25,1,1062,NaN,bird,knife,0,knife2-car3.png,
gauss_4_sup_RN50_gauss_0_for_60_epoch25,1,1063,NaN,cat,knife,0,knife2-cat3.png,
gauss_4_sup_RN50_gauss_0_for_60_epoch25,1,1064,NaN,elephant,knife,0,knife2-dog1.png,
gauss_4_sup_RN50_gauss_0_for_60_epoch25,1,1065,NaN,dog,knife,0,knife2-elephant2.png,
gauss_4_sup_RN50_gauss_0_for_60_epoch25,1,1066,NaN,bottle,knife,0,knife2-truck2.png,
gauss_4_sup_RN50_gauss_0_for_60_epoch25,1,1067,NaN,dog,knife,0,knife3-bear2.png,
gauss_4_sup_RN50_gauss_0_for_60_epoch25,1,1068,NaN,dog,knife,0,knife3-cat1.png,
gauss_4_sup_RN50_gauss_0_for_60_epoch25,1,1069,NaN,dog,knife,0,knife3-clock2.png,
gauss_4_sup_RN50_gauss_0_for_60_epoch25,1,1070,NaN,dog,knife,0,knife3-keyboard3.png,
gauss_4_sup_RN50_gauss_0_for_60_epoch25,1,1071,NaN,oven,knife,0,knife3-knife1.png,
gauss_4_sup_RN50_gauss_0_for_60_epoch25,1,1072,NaN,bottle,knife,0,knife4-airplane3.png,
gauss_4_sup_RN50_gauss_0_for_60_epoch25,1,1073,NaN,cat,knife,0,knife4-bear1.png,
gauss_4_sup_RN50_gauss_0_for_60_epoch25,1,1074,NaN,bottle,knife,0,knife4-boat1.png,
gauss_4_sup_RN50_gauss_0_for_60_epoch25,1,1075,NaN,boat,knife,0,knife4-car2.png,
gauss_4_sup_RN50_gauss_0_for_60_epoch25,1,1076,NaN,cat,knife,0,knife4-cat2.png,
gauss_4_sup_RN50_gauss_0_for_60_epoch25,1,1077,NaN,bottle,knife,0,knife4-clock3.png,
gauss_4_sup_RN50_gauss_0_for_60_epoch25,1,1078,NaN,bottle,knife,0,knife4-keyboard1.png,
gauss_4_sup_RN50_gauss_0_for_60_epoch25,1,1079,NaN,bottle,knife,0,knife4-knife2.png,
gauss_4_sup_RN50_gauss_0_for_60_epoch25,1,1080,NaN,bottle,knife,0,knife4-oven2.png,
gauss_4_sup_RN50_gauss_0_for_60_epoch25,1,1081,NaN,bottle,knife,0,knife5-bicycle2.png,
gauss_4_sup_RN50_gauss_0_for_60_epoch25,1,1082,NaN,cat,knife,0,knife5-cat2.png,
gauss_4_sup_RN50_gauss_0_for_60_epoch25,1,1083,NaN,bottle,knife,0,knife5-clock1.png,
gauss_4_sup_RN50_gauss_0_for_60_epoch25,1,1084,NaN,dog,knife,0,knife5-dog1.png,
gauss_4_sup_RN50_gauss_0_for_60_epoch25,1,1085,NaN,bottle,knife,0,knife5-keyboard3.png,
gauss_4_sup_RN50_gauss_0_for_60_epoch25,1,1086,NaN,bottle,knife,0,knife5-knife3.png,
gauss_4_sup_RN50_gauss_0_for_60_epoch25,1,1087,NaN,bottle,knife,0,knife5-oven2.png,
gauss_4_sup_RN50_gauss_0_for_60_epoch25,1,1088,NaN,bottle,knife,0,knife5-truck3.png,
gauss_4_sup_RN50_gauss_0_for_60_epoch25,1,1089,NaN,bottle,knife,0,knife6-airplane1.png,
gauss_4_sup_RN50_gauss_0_for_60_epoch25,1,1090,NaN,bottle,knife,0,knife6-bicycle1.png,
gauss_4_sup_RN50_gauss_0_for_60_epoch25,1,1091,NaN,bottle,knife,0,knife6-bird1.png,
gauss_4_sup_RN50_gauss_0_for_60_epoch25,1,1092,NaN,bottle,knife,0,knife6-boat3.png,
gauss_4_sup_RN50_gauss_0_for_60_epoch25,1,1093,NaN,bird,knife,0,knife6-bottle3.png,
gauss_4_sup_RN50_gauss_0_for_60_epoch25,1,1094,NaN,bottle,knife,0,knife6-chair3.png,
gauss_4_sup_RN50_gauss_0_for_60_epoch25,1,1095,NaN,bottle,knife,0,knife6-clock2.png,
gauss_4_sup_RN50_gauss_0_for_60_epoch25,1,1096,NaN,dog,knife,0,knife6-dog2.png,
gauss_4_sup_RN50_gauss_0_for_60_epoch25,1,1097,NaN,bottle,knife,0,knife6-knife1.png,
gauss_4_sup_RN50_gauss_0_for_60_epoch25,1,1098,NaN,bottle,knife,0,knife6-oven3.png,
gauss_4_sup_RN50_gauss_0_for_60_epoch25,1,1099,NaN,bottle,knife,0,knife6-truck1.png,
gauss_4_sup_RN50_gauss_0_for_60_epoch25,1,1100,NaN,bottle,knife,0,knife7-airplane3.png,
gauss_4_sup_RN50_gauss_0_for_60_epoch25,1,1101,NaN,bottle,knife,0,knife7-bird3.png,
gauss_4_sup_RN50_gauss_0_for_60_epoch25,1,1102,NaN,bottle,knife,0,knife7-boat3.png,
gauss_4_sup_RN50_gauss_0_for_60_epoch25,1,1103,NaN,bird,knife,0,knife7-bottle3.png,
gauss_4_sup_RN50_gauss_0_for_60_epoch25,1,1104,NaN,bottle,knife,0,knife7-car2.png,
gauss_4_sup_RN50_gauss_0_for_60_epoch25,1,1105,NaN,oven,knife,0,knife7-chair2.png,
gauss_4_sup_RN50_gauss_0_for_60_epoch25,1,1106,NaN,dog,knife,0,knife7-elephant2.png,
gauss_4_sup_RN50_gauss_0_for_60_epoch25,1,1107,NaN,knife,knife,0,knife8-bicycle1.png,
gauss_4_sup_RN50_gauss_0_for_60_epoch25,1,1108,NaN,bottle,knife,0,knife8-boat1.png,
gauss_4_sup_RN50_gauss_0_for_60_epoch25,1,1109,NaN,cat,knife,0,knife8-bottle3.png,
gauss_4_sup_RN50_gauss_0_for_60_epoch25,1,1110,NaN,boat,knife,0,knife8-car2.png,
gauss_4_sup_RN50_gauss_0_for_60_epoch25,1,1111,NaN,knife,knife,0,knife8-cat2.png,
gauss_4_sup_RN50_gauss_0_for_60_epoch25,1,1112,NaN,bottle,knife,0,knife8-truck3.png,
gauss_4_sup_RN50_gauss_0_for_60_epoch25,1,1113,NaN,bottle,knife,0,knife9-airplane2.png,
gauss_4_sup_RN50_gauss_0_for_60_epoch25,1,1114,NaN,dog,knife,0,knife9-bear3.png,
gauss_4_sup_RN50_gauss_0_for_60_epoch25,1,1115,NaN,bottle,knife,0,knife9-bicycle1.png,
gauss_4_sup_RN50_gauss_0_for_60_epoch25,1,1116,NaN,dog,knife,0,knife9-bird1.png,
gauss_4_sup_RN50_gauss_0_for_60_epoch25,1,1117,NaN,chair,knife,0,knife9-boat1.png,
gauss_4_sup_RN50_gauss_0_for_60_epoch25,1,1118,NaN,bottle,knife,0,knife9-bottle2.png,
gauss_4_sup_RN50_gauss_0_for_60_epoch25,1,1119,NaN,clock,knife,0,knife9-chair1.png,
gauss_4_sup_RN50_gauss_0_for_60_epoch25,1,1120,NaN,dog,knife,0,knife9-elephant2.png,
gauss_4_sup_RN50_gauss_0_for_60_epoch25,1,1121,NaN,bottle,oven,0,oven1-bird3.png,
gauss_4_sup_RN50_gauss_0_for_60_epoch25,1,1122,NaN,bottle,oven,0,oven1-boat3.png,
gauss_4_sup_RN50_gauss_0_for_60_epoch25,1,1123,NaN,dog,oven,0,oven1-cat1.png,
gauss_4_sup_RN50_gauss_0_for_60_epoch25,1,1124,NaN,keyboard,oven,0,oven1-clock3.png,
gauss_4_sup_RN50_gauss_0_for_60_epoch25,1,1125,NaN,dog,oven,0,oven1-dog3.png,
gauss_4_sup_RN50_gauss_0_for_60_epoch25,1,1126,NaN,bottle,oven,0,oven10-airplane2.png,
gauss_4_sup_RN50_gauss_0_for_60_epoch25,1,1127,NaN,bear,oven,0,oven10-bear1.png,
gauss_4_sup_RN50_gauss_0_for_60_epoch25,1,1128,NaN,bottle,oven,0,oven10-bicycle1.png,
gauss_4_sup_RN50_gauss_0_for_60_epoch25,1,1129,NaN,oven,oven,0,oven10-boat2.png,
gauss_4_sup_RN50_gauss_0_for_60_epoch25,1,1130,NaN,cat,oven,0,oven10-cat2.png,
gauss_4_sup_RN50_gauss_0_for_60_epoch25,1,1131,NaN,bottle,oven,0,oven10-oven3.png,
gauss_4_sup_RN50_gauss_0_for_60_epoch25,1,1132,NaN,bottle,oven,0,oven10-truck2.png,
gauss_4_sup_RN50_gauss_0_for_60_epoch25,1,1133,NaN,bottle,oven,0,oven2-bear3.png,
gauss_4_sup_RN50_gauss_0_for_60_epoch25,1,1134,NaN,bottle,oven,0,oven2-bicycle1.png,
gauss_4_sup_RN50_gauss_0_for_60_epoch25,1,1135,NaN,keyboard,oven,0,oven2-bird2.png,
gauss_4_sup_RN50_gauss_0_for_60_epoch25,1,1136,NaN,bottle,oven,0,oven2-boat3.png,
gauss_4_sup_RN50_gauss_0_for_60_epoch25,1,1137,NaN,bottle,oven,0,oven2-bottle1.png,
gauss_4_sup_RN50_gauss_0_for_60_epoch25,1,1138,NaN,bottle,oven,0,oven2-car1.png,
gauss_4_sup_RN50_gauss_0_for_60_epoch25,1,1139,NaN,bottle,oven,0,oven2-chair1.png,
gauss_4_sup_RN50_gauss_0_for_60_epoch25,1,1140,NaN,bottle,oven,0,oven2-dog3.png,
gauss_4_sup_RN50_gauss_0_for_60_epoch25,1,1141,NaN,oven,oven,0,oven2-oven3.png,
gauss_4_sup_RN50_gauss_0_for_60_epoch25,1,1142,NaN,bottle,oven,0,oven2-truck3.png,
gauss_4_sup_RN50_gauss_0_for_60_epoch25,1,1143,NaN,cat,oven,0,oven3-airplane1.png,
gauss_4_sup_RN50_gauss_0_for_60_epoch25,1,1144,NaN,elephant,oven,0,oven3-bear2.png,
gauss_4_sup_RN50_gauss_0_for_60_epoch25,1,1145,NaN,bottle,oven,0,oven3-boat3.png,
gauss_4_sup_RN50_gauss_0_for_60_epoch25,1,1146,NaN,bottle,oven,0,oven3-bottle3.png,
gauss_4_sup_RN50_gauss_0_for_60_epoch25,1,1147,NaN,car,oven,0,oven3-car2.png,
gauss_4_sup_RN50_gauss_0_for_60_epoch25,1,1148,NaN,elephant,oven,0,oven3-cat2.png,
gauss_4_sup_RN50_gauss_0_for_60_epoch25,1,1149,NaN,dog,oven,0,oven3-clock3.png,
gauss_4_sup_RN50_gauss_0_for_60_epoch25,1,1150,NaN,elephant,oven,0,oven3-elephant3.png,
gauss_4_sup_RN50_gauss_0_for_60_epoch25,1,1151,NaN,bottle,oven,0,oven3-knife1.png,
gauss_4_sup_RN50_gauss_0_for_60_epoch25,1,1152,NaN,bottle,oven,0,oven3-truck1.png,
gauss_4_sup_RN50_gauss_0_for_60_epoch25,1,1153,NaN,bottle,oven,0,oven4-bicycle2.png,
gauss_4_sup_RN50_gauss_0_for_60_epoch25,1,1154,NaN,bottle,oven,0,oven4-bottle2.png,
gauss_4_sup_RN50_gauss_0_for_60_epoch25,1,1155,NaN,bottle,oven,0,oven4-car1.png,
gauss_4_sup_RN50_gauss_0_for_60_epoch25,1,1156,NaN,bottle,oven,0,oven4-chair1.png,
gauss_4_sup_RN50_gauss_0_for_60_epoch25,1,1157,NaN,bottle,oven,0,oven4-clock2.png,
gauss_4_sup_RN50_gauss_0_for_60_epoch25,1,1158,NaN,bottle,oven,0,oven4-dog1.png,
gauss_4_sup_RN50_gauss_0_for_60_epoch25,1,1159,NaN,elephant,oven,0,oven4-elephant3.png,
gauss_4_sup_RN50_gauss_0_for_60_epoch25,1,1160,NaN,bottle,oven,0,oven4-keyboard3.png,
gauss_4_sup_RN50_gauss_0_for_60_epoch25,1,1161,NaN,bottle,oven,0,oven4-knife2.png,
gauss_4_sup_RN50_gauss_0_for_60_epoch25,1,1162,NaN,bottle,oven,0,oven4-truck3.png,
gauss_4_sup_RN50_gauss_0_for_60_epoch25,1,1163,NaN,bottle,oven,0,oven5-airplane1.png,
gauss_4_sup_RN50_gauss_0_for_60_epoch25,1,1164,NaN,bottle,oven,0,oven5-bicycle1.png,
gauss_4_sup_RN50_gauss_0_for_60_epoch25,1,1165,NaN,dog,oven,0,oven5-bird1.png,
gauss_4_sup_RN50_gauss_0_for_60_epoch25,1,1166,NaN,bottle,oven,0,oven5-bottle3.png,
gauss_4_sup_RN50_gauss_0_for_60_epoch25,1,1167,NaN,bottle,oven,0,oven5-dog3.png,
gauss_4_sup_RN50_gauss_0_for_60_epoch25,1,1168,NaN,bottle,oven,0,oven5-elephant1.png,
gauss_4_sup_RN50_gauss_0_for_60_epoch25,1,1169,NaN,bottle,oven,0,oven5-keyboard2.png,
gauss_4_sup_RN50_gauss_0_for_60_epoch25,1,1170,NaN,bottle,oven,0,oven6-airplane3.png,
gauss_4_sup_RN50_gauss_0_for_60_epoch25,1,1171,NaN,elephant,oven,0,oven6-bear2.png,
gauss_4_sup_RN50_gauss_0_for_60_epoch25,1,1172,NaN,chair,oven,0,oven6-bicycle1.png,
gauss_4_sup_RN50_gauss_0_for_60_epoch25,1,1173,NaN,bear,oven,0,oven6-bird1.png,
gauss_4_sup_RN50_gauss_0_for_60_epoch25,1,1174,NaN,bottle,oven,0,oven6-chair3.png,
gauss_4_sup_RN50_gauss_0_for_60_epoch25,1,1175,NaN,dog,oven,0,oven6-elephant2.png,
gauss_4_sup_RN50_gauss_0_for_60_epoch25,1,1176,NaN,bottle,oven,0,oven6-knife3.png,
gauss_4_sup_RN50_gauss_0_for_60_epoch25,1,1177,NaN,truck,oven,0,oven6-oven3.png,
gauss_4_sup_RN50_gauss_0_for_60_epoch25,1,1178,NaN,car,oven,0,oven6-truck1.png,
gauss_4_sup_RN50_gauss_0_for_60_epoch25,1,1179,NaN,chair,oven,0,oven7-bottle1.png,
gauss_4_sup_RN50_gauss_0_for_60_epoch25,1,1180,NaN,bottle,oven,0,oven7-car3.png,
gauss_4_sup_RN50_gauss_0_for_60_epoch25,1,1181,NaN,bottle,oven,0,oven7-cat1.png,
gauss_4_sup_RN50_gauss_0_for_60_epoch25,1,1182,NaN,dog,oven,0,oven7-clock2.png,
gauss_4_sup_RN50_gauss_0_for_60_epoch25,1,1183,NaN,dog,oven,0,oven7-dog2.png,
gauss_4_sup_RN50_gauss_0_for_60_epoch25,1,1184,NaN,cat,oven,0,oven7-elephant1.png,
gauss_4_sup_RN50_gauss_0_for_60_epoch25,1,1185,NaN,bottle,oven,0,oven7-keyboard1.png,
gauss_4_sup_RN50_gauss_0_for_60_epoch25,1,1186,NaN,bottle,oven,0,oven7-oven1.png,
gauss_4_sup_RN50_gauss_0_for_60_epoch25,1,1187,NaN,bottle,oven,0,oven8-cat3.png,
gauss_4_sup_RN50_gauss_0_for_60_epoch25,1,1188,NaN,keyboard,oven,0,oven8-chair1.png,
gauss_4_sup_RN50_gauss_0_for_60_epoch25,1,1189,NaN,bottle,oven,0,oven8-keyboard3.png,
gauss_4_sup_RN50_gauss_0_for_60_epoch25,1,1190,NaN,bottle,oven,0,oven8-knife2.png,
gauss_4_sup_RN50_gauss_0_for_60_epoch25,1,1191,NaN,bottle,oven,0,oven9-airplane2.png,
gauss_4_sup_RN50_gauss_0_for_60_epoch25,1,1192,NaN,elephant,oven,0,oven9-bear2.png,
gauss_4_sup_RN50_gauss_0_for_60_epoch25,1,1193,NaN,bottle,oven,0,oven9-bird3.png,
