subj,session,trial,rt,object_response,category,condition,imagename,
gauss_6_sup_RN50_gauss_6_for_60_epoch5,1,1,NaN,bicycle,airplane,0,airplane1-bicycle2.png,
gauss_6_sup_RN50_gauss_6_for_60_epoch5,1,2,NaN,chair,airplane,0,airplane1-chair2.png,
gauss_6_sup_RN50_gauss_6_for_60_epoch5,1,3,NaN,bird,airplane,0,airplane1-clock1.png,
gauss_6_sup_RN50_gauss_6_for_60_epoch5,1,4,NaN,clock,airplane,0,airplane1-elephant1.png,
gauss_6_sup_RN50_gauss_6_for_60_epoch5,1,5,NaN,airplane,airplane,0,airplane10-airplane1.png,
gauss_6_sup_RN50_gauss_6_for_60_epoch5,1,6,NaN,elephant,airplane,0,airplane10-bear3.png,
gauss_6_sup_RN50_gauss_6_for_60_epoch5,1,7,NaN,bottle,airplane,0,airplane10-boat3.png,
gauss_6_sup_RN50_gauss_6_for_60_epoch5,1,8,NaN,truck,airplane,0,airplane10-car3.png,
gauss_6_sup_RN50_gauss_6_for_60_epoch5,1,9,NaN,bird,airplane,0,airplane10-cat2.png,
gauss_6_sup_RN50_gauss_6_for_60_epoch5,1,10,NaN,elephant,airplane,0,airplane10-dog3.png,
gauss_6_sup_RN50_gauss_6_for_60_epoch5,1,11,NaN,elephant,airplane,0,airplane10-elephant1.png,
gauss_6_sup_RN50_gauss_6_for_60_epoch5,1,12,NaN,bottle,airplane,0,airplane10-knife3.png,
gauss_6_sup_RN50_gauss_6_for_60_epoch5,1,13,NaN,bottle,airplane,0,airplane10-oven2.png,
gauss_6_sup_RN50_gauss_6_for_60_epoch5,1,14,NaN,truck,airplane,0,airplane10-truck1.png,
gauss_6_sup_RN50_gauss_6_for_60_epoch5,1,15,NaN,elephant,airplane,0,airplane2-bear1.png,
gauss_6_sup_RN50_gauss_6_for_60_epoch5,1,16,NaN,bicycle,airplane,0,airplane2-bicycle1.png,
gauss_6_sup_RN50_gauss_6_for_60_epoch5,1,17,NaN,knife,airplane,0,airplane2-bird3.png,
gauss_6_sup_RN50_gauss_6_for_60_epoch5,1,18,NaN,bottle,airplane,0,airplane2-bottle1.png,
gauss_6_sup_RN50_gauss_6_for_60_epoch5,1,19,NaN,dog,airplane,0,airplane2-cat1.png,
gauss_6_sup_RN50_gauss_6_for_60_epoch5,1,20,NaN,cat,airplane,0,airplane2-dog1.png,
gauss_6_sup_RN50_gauss_6_for_60_epoch5,1,21,NaN,airplane,airplane,0,airplane3-airplane2.png,
gauss_6_sup_RN50_gauss_6_for_60_epoch5,1,22,NaN,boat,airplane,0,airplane3-car1.png,
gauss_6_sup_RN50_gauss_6_for_60_epoch5,1,23,NaN,cat,airplane,0,airplane3-cat1.png,
gauss_6_sup_RN50_gauss_6_for_60_epoch5,1,24,NaN,airplane,airplane,0,airplane3-chair3.png,
gauss_6_sup_RN50_gauss_6_for_60_epoch5,1,25,NaN,bottle,airplane,0,airplane3-clock1.png,
gauss_6_sup_RN50_gauss_6_for_60_epoch5,1,26,NaN,elephant,airplane,0,airplane3-dog1.png,
gauss_6_sup_RN50_gauss_6_for_60_epoch5,1,27,NaN,elephant,airplane,0,airplane3-elephant1.png,
gauss_6_sup_RN50_gauss_6_for_60_epoch5,1,28,NaN,airplane,airplane,0,airplane3-keyboard2.png,
gauss_6_sup_RN50_gauss_6_for_60_epoch5,1,29,NaN,airplane,airplane,0,airplane3-oven1.png,
gauss_6_sup_RN50_gauss_6_for_60_epoch5,1,30,NaN,airplane,airplane,0,airplane4-airplane1.png,
gauss_6_sup_RN50_gauss_6_for_60_epoch5,1,31,NaN,elephant,airplane,0,airplane4-bear3.png,
gauss_6_sup_RN50_gauss_6_for_60_epoch5,1,32,NaN,bicycle,airplane,0,airplane4-bicycle2.png,
gauss_6_sup_RN50_gauss_6_for_60_epoch5,1,33,NaN,knife,airplane,0,airplane4-bird3.png,
gauss_6_sup_RN50_gauss_6_for_60_epoch5,1,34,NaN,bottle,airplane,0,airplane4-boat3.png,
gauss_6_sup_RN50_gauss_6_for_60_epoch5,1,35,NaN,bottle,airplane,0,airplane4-bottle1.png,
gauss_6_sup_RN50_gauss_6_for_60_epoch5,1,36,NaN,boat,airplane,0,airplane4-car1.png,
gauss_6_sup_RN50_gauss_6_for_60_epoch5,1,37,NaN,cat,airplane,0,airplane4-cat3.png,
gauss_6_sup_RN50_gauss_6_for_60_epoch5,1,38,NaN,bird,airplane,0,airplane4-dog2.png,
gauss_6_sup_RN50_gauss_6_for_60_epoch5,1,39,NaN,keyboard,airplane,0,airplane4-elephant1.png,
gauss_6_sup_RN50_gauss_6_for_60_epoch5,1,40,NaN,keyboard,airplane,0,airplane4-keyboard3.png,
gauss_6_sup_RN50_gauss_6_for_60_epoch5,1,41,NaN,knife,airplane,0,airplane4-knife1.png,
gauss_6_sup_RN50_gauss_6_for_60_epoch5,1,42,NaN,truck,airplane,0,airplane4-truck2.png,
gauss_6_sup_RN50_gauss_6_for_60_epoch5,1,43,NaN,elephant,airplane,0,airplane5-bear2.png,
gauss_6_sup_RN50_gauss_6_for_60_epoch5,1,44,NaN,bicycle,airplane,0,airplane5-bicycle1.png,
gauss_6_sup_RN50_gauss_6_for_60_epoch5,1,45,NaN,elephant,airplane,0,airplane5-bird2.png,
gauss_6_sup_RN50_gauss_6_for_60_epoch5,1,46,NaN,boat,airplane,0,airplane5-boat3.png,
gauss_6_sup_RN50_gauss_6_for_60_epoch5,1,47,NaN,bird,airplane,0,airplane5-bottle3.png,
gauss_6_sup_RN50_gauss_6_for_60_epoch5,1,48,NaN,airplane,airplane,0,airplane5-chair3.png,
gauss_6_sup_RN50_gauss_6_for_60_epoch5,1,49,NaN,dog,airplane,0,airplane5-dog3.png,
gauss_6_sup_RN50_gauss_6_for_60_epoch5,1,50,NaN,knife,airplane,0,airplane5-knife1.png,
gauss_6_sup_RN50_gauss_6_for_60_epoch5,1,51,NaN,knife,airplane,0,airplane5-oven3.png,
gauss_6_sup_RN50_gauss_6_for_60_epoch5,1,52,NaN,elephant,airplane,0,airplane6-bear3.png,
gauss_6_sup_RN50_gauss_6_for_60_epoch5,1,53,NaN,bottle,airplane,0,airplane6-bottle2.png,
gauss_6_sup_RN50_gauss_6_for_60_epoch5,1,54,NaN,airplane,airplane,0,airplane6-chair3.png,
gauss_6_sup_RN50_gauss_6_for_60_epoch5,1,55,NaN,airplane,airplane,0,airplane6-keyboard3.png,
gauss_6_sup_RN50_gauss_6_for_60_epoch5,1,56,NaN,knife,airplane,0,airplane6-knife1.png,
gauss_6_sup_RN50_gauss_6_for_60_epoch5,1,57,NaN,airplane,airplane,0,airplane7-airplane3.png,
gauss_6_sup_RN50_gauss_6_for_60_epoch5,1,58,NaN,bottle,airplane,0,airplane7-bird3.png,
gauss_6_sup_RN50_gauss_6_for_60_epoch5,1,59,NaN,boat,airplane,0,airplane7-boat2.png,
gauss_6_sup_RN50_gauss_6_for_60_epoch5,1,60,NaN,bird,airplane,0,airplane7-bottle3.png,
gauss_6_sup_RN50_gauss_6_for_60_epoch5,1,61,NaN,airplane,airplane,0,airplane7-car1.png,
gauss_6_sup_RN50_gauss_6_for_60_epoch5,1,62,NaN,cat,airplane,0,airplane7-cat3.png,
gauss_6_sup_RN50_gauss_6_for_60_epoch5,1,63,NaN,elephant,airplane,0,airplane7-clock3.png,
gauss_6_sup_RN50_gauss_6_for_60_epoch5,1,64,NaN,elephant,airplane,0,airplane7-keyboard1.png,
gauss_6_sup_RN50_gauss_6_for_60_epoch5,1,65,NaN,truck,airplane,0,airplane7-truck1.png,
gauss_6_sup_RN50_gauss_6_for_60_epoch5,1,66,NaN,oven,airplane,0,airplane8-bicycle3.png,
gauss_6_sup_RN50_gauss_6_for_60_epoch5,1,67,NaN,cat,airplane,0,airplane8-bird1.png,
gauss_6_sup_RN50_gauss_6_for_60_epoch5,1,68,NaN,bottle,airplane,0,airplane8-chair1.png,
gauss_6_sup_RN50_gauss_6_for_60_epoch5,1,69,NaN,bottle,airplane,0,airplane8-clock2.png,
gauss_6_sup_RN50_gauss_6_for_60_epoch5,1,70,NaN,elephant,airplane,0,airplane8-elephant3.png,
gauss_6_sup_RN50_gauss_6_for_60_epoch5,1,71,NaN,bottle,airplane,0,airplane8-oven2.png,
gauss_6_sup_RN50_gauss_6_for_60_epoch5,1,72,NaN,bottle,airplane,0,airplane8-truck3.png,
gauss_6_sup_RN50_gauss_6_for_60_epoch5,1,73,NaN,airplane,airplane,0,airplane9-airplane2.png,
gauss_6_sup_RN50_gauss_6_for_60_epoch5,1,74,NaN,airplane,airplane,0,airplane9-boat1.png,
gauss_6_sup_RN50_gauss_6_for_60_epoch5,1,75,NaN,airplane,airplane,0,airplane9-car2.png,
gauss_6_sup_RN50_gauss_6_for_60_epoch5,1,76,NaN,cat,airplane,0,airplane9-clock1.png,
gauss_6_sup_RN50_gauss_6_for_60_epoch5,1,77,NaN,keyboard,airplane,0,airplane9-keyboard2.png,
gauss_6_sup_RN50_gauss_6_for_60_epoch5,1,78,NaN,knife,airplane,0,airplane9-knife3.png,
gauss_6_sup_RN50_gauss_6_for_60_epoch5,1,79,NaN,elephant,airplane,0,airplane9-oven2.png,
gauss_6_sup_RN50_gauss_6_for_60_epoch5,1,80,NaN,car,airplane,0,airplane9-truck1.png,
gauss_6_sup_RN50_gauss_6_for_60_epoch5,1,81,NaN,elephant,bear,0,bear1-airplane3.png,
gauss_6_sup_RN50_gauss_6_for_60_epoch5,1,82,NaN,elephant,bear,0,bear1-bear3.png,
gauss_6_sup_RN50_gauss_6_for_60_epoch5,1,83,NaN,oven,bear,0,bear1-bicycle3.png,
gauss_6_sup_RN50_gauss_6_for_60_epoch5,1,84,NaN,elephant,bear,0,bear1-bird2.png,
gauss_6_sup_RN50_gauss_6_for_60_epoch5,1,85,NaN,elephant,bear,0,bear1-chair2.png,
gauss_6_sup_RN50_gauss_6_for_60_epoch5,1,86,NaN,elephant,bear,0,bear1-clock2.png,
gauss_6_sup_RN50_gauss_6_for_60_epoch5,1,87,NaN,elephant,bear,0,bear1-elephant1.png,
gauss_6_sup_RN50_gauss_6_for_60_epoch5,1,88,NaN,elephant,bear,0,bear10-bear2.png,
gauss_6_sup_RN50_gauss_6_for_60_epoch5,1,89,NaN,elephant,bear,0,bear10-bottle1.png,
gauss_6_sup_RN50_gauss_6_for_60_epoch5,1,90,NaN,airplane,bear,0,bear10-car2.png,
gauss_6_sup_RN50_gauss_6_for_60_epoch5,1,91,NaN,cat,bear,0,bear10-cat2.png,
gauss_6_sup_RN50_gauss_6_for_60_epoch5,1,92,NaN,chair,bear,0,bear10-chair2.png,
gauss_6_sup_RN50_gauss_6_for_60_epoch5,1,93,NaN,cat,bear,0,bear10-clock1.png,
gauss_6_sup_RN50_gauss_6_for_60_epoch5,1,94,NaN,keyboard,bear,0,bear10-elephant1.png,
gauss_6_sup_RN50_gauss_6_for_60_epoch5,1,95,NaN,clock,bear,0,bear10-keyboard3.png,
gauss_6_sup_RN50_gauss_6_for_60_epoch5,1,96,NaN,oven,bear,0,bear10-knife2.png,
gauss_6_sup_RN50_gauss_6_for_60_epoch5,1,97,NaN,truck,bear,0,bear10-oven1.png,
gauss_6_sup_RN50_gauss_6_for_60_epoch5,1,98,NaN,truck,bear,0,bear10-truck1.png,
gauss_6_sup_RN50_gauss_6_for_60_epoch5,1,99,NaN,airplane,bear,0,bear2-airplane1.png,
gauss_6_sup_RN50_gauss_6_for_60_epoch5,1,100,NaN,elephant,bear,0,bear2-bird3.png,
gauss_6_sup_RN50_gauss_6_for_60_epoch5,1,101,NaN,bottle,bear,0,bear2-car2.png,
gauss_6_sup_RN50_gauss_6_for_60_epoch5,1,102,NaN,cat,bear,0,bear2-cat2.png,
gauss_6_sup_RN50_gauss_6_for_60_epoch5,1,103,NaN,bear,bear,0,bear2-dog1.png,
gauss_6_sup_RN50_gauss_6_for_60_epoch5,1,104,NaN,elephant,bear,0,bear2-elephant1.png,
gauss_6_sup_RN50_gauss_6_for_60_epoch5,1,105,NaN,bottle,bear,0,bear2-keyboard2.png,
gauss_6_sup_RN50_gauss_6_for_60_epoch5,1,106,NaN,elephant,bear,0,bear2-knife2.png,
gauss_6_sup_RN50_gauss_6_for_60_epoch5,1,107,NaN,bottle,bear,0,bear2-oven1.png,
gauss_6_sup_RN50_gauss_6_for_60_epoch5,1,108,NaN,airplane,bear,0,bear3-airplane1.png,
gauss_6_sup_RN50_gauss_6_for_60_epoch5,1,109,NaN,cat,bear,0,bear3-bicycle2.png,
gauss_6_sup_RN50_gauss_6_for_60_epoch5,1,110,NaN,elephant,bear,0,bear3-bird3.png,
gauss_6_sup_RN50_gauss_6_for_60_epoch5,1,111,NaN,oven,bear,0,bear3-car2.png,
gauss_6_sup_RN50_gauss_6_for_60_epoch5,1,112,NaN,cat,bear,0,bear3-cat1.png,
gauss_6_sup_RN50_gauss_6_for_60_epoch5,1,113,NaN,chair,bear,0,bear3-chair2.png,
gauss_6_sup_RN50_gauss_6_for_60_epoch5,1,114,NaN,cat,bear,0,bear3-dog3.png,
gauss_6_sup_RN50_gauss_6_for_60_epoch5,1,115,NaN,bottle,bear,0,bear3-keyboard2.png,
gauss_6_sup_RN50_gauss_6_for_60_epoch5,1,116,NaN,bottle,bear,0,bear3-truck3.png,
gauss_6_sup_RN50_gauss_6_for_60_epoch5,1,117,NaN,boat,bear,0,bear4-boat2.png,
gauss_6_sup_RN50_gauss_6_for_60_epoch5,1,118,NaN,truck,bear,0,bear4-car3.png,
gauss_6_sup_RN50_gauss_6_for_60_epoch5,1,119,NaN,dog,bear,0,bear4-cat3.png,
gauss_6_sup_RN50_gauss_6_for_60_epoch5,1,120,NaN,elephant,bear,0,bear4-clock3.png,
gauss_6_sup_RN50_gauss_6_for_60_epoch5,1,121,NaN,elephant,bear,0,bear4-elephant2.png,
gauss_6_sup_RN50_gauss_6_for_60_epoch5,1,122,NaN,car,bear,0,bear4-keyboard3.png,
gauss_6_sup_RN50_gauss_6_for_60_epoch5,1,123,NaN,elephant,bear,0,bear4-knife1.png,
gauss_6_sup_RN50_gauss_6_for_60_epoch5,1,124,NaN,elephant,bear,0,bear4-oven2.png,
gauss_6_sup_RN50_gauss_6_for_60_epoch5,1,125,NaN,bottle,bear,0,bear4-truck3.png,
gauss_6_sup_RN50_gauss_6_for_60_epoch5,1,126,NaN,elephant,bear,0,bear5-airplane3.png,
gauss_6_sup_RN50_gauss_6_for_60_epoch5,1,127,NaN,chair,bear,0,bear5-bicycle3.png,
gauss_6_sup_RN50_gauss_6_for_60_epoch5,1,128,NaN,elephant,bear,0,bear5-bird1.png,
gauss_6_sup_RN50_gauss_6_for_60_epoch5,1,129,NaN,boat,bear,0,bear5-boat2.png,
gauss_6_sup_RN50_gauss_6_for_60_epoch5,1,130,NaN,elephant,bear,0,bear5-bottle1.png,
gauss_6_sup_RN50_gauss_6_for_60_epoch5,1,131,NaN,bottle,bear,0,bear5-chair1.png,
gauss_6_sup_RN50_gauss_6_for_60_epoch5,1,132,NaN,elephant,bear,0,bear5-oven3.png,
gauss_6_sup_RN50_gauss_6_for_60_epoch5,1,133,NaN,elephant,bear,0,bear6-bear1.png,
gauss_6_sup_RN50_gauss_6_for_60_epoch5,1,134,NaN,elephant,bear,0,bear6-bird2.png,
gauss_6_sup_RN50_gauss_6_for_60_epoch5,1,135,NaN,bottle,bear,0,bear6-boat3.png,
gauss_6_sup_RN50_gauss_6_for_60_epoch5,1,136,NaN,bird,bear,0,bear6-bottle3.png,
gauss_6_sup_RN50_gauss_6_for_60_epoch5,1,137,NaN,airplane,bear,0,bear6-car2.png,
gauss_6_sup_RN50_gauss_6_for_60_epoch5,1,138,NaN,cat,bear,0,bear6-cat3.png,
gauss_6_sup_RN50_gauss_6_for_60_epoch5,1,139,NaN,clock,bear,0,bear6-chair1.png,
gauss_6_sup_RN50_gauss_6_for_60_epoch5,1,140,NaN,cat,bear,0,bear6-clock1.png,
gauss_6_sup_RN50_gauss_6_for_60_epoch5,1,141,NaN,bear,bear,0,bear7-bear2.png,
gauss_6_sup_RN50_gauss_6_for_60_epoch5,1,142,NaN,cat,bear,0,bear7-bicycle2.png,
gauss_6_sup_RN50_gauss_6_for_60_epoch5,1,143,NaN,elephant,bear,0,bear7-clock1.png,
gauss_6_sup_RN50_gauss_6_for_60_epoch5,1,144,NaN,bear,bear,0,bear7-dog3.png,
gauss_6_sup_RN50_gauss_6_for_60_epoch5,1,145,NaN,elephant,bear,0,bear7-oven3.png,
gauss_6_sup_RN50_gauss_6_for_60_epoch5,1,146,NaN,truck,bear,0,bear7-truck1.png,
gauss_6_sup_RN50_gauss_6_for_60_epoch5,1,147,NaN,airplane,bear,0,bear8-airplane1.png,
gauss_6_sup_RN50_gauss_6_for_60_epoch5,1,148,NaN,bear,bear,0,bear8-bear1.png,
gauss_6_sup_RN50_gauss_6_for_60_epoch5,1,149,NaN,cat,bear,0,bear8-bicycle3.png,
gauss_6_sup_RN50_gauss_6_for_60_epoch5,1,150,NaN,boat,bear,0,bear8-boat2.png,
gauss_6_sup_RN50_gauss_6_for_60_epoch5,1,151,NaN,bottle,bear,0,bear8-bottle1.png,
gauss_6_sup_RN50_gauss_6_for_60_epoch5,1,152,NaN,cat,bear,0,bear8-dog1.png,
gauss_6_sup_RN50_gauss_6_for_60_epoch5,1,153,NaN,elephant,bear,0,bear8-elephant2.png,
gauss_6_sup_RN50_gauss_6_for_60_epoch5,1,154,NaN,bird,bear,0,bear8-knife3.png,
gauss_6_sup_RN50_gauss_6_for_60_epoch5,1,155,NaN,bottle,bear,0,bear8-truck3.png,
gauss_6_sup_RN50_gauss_6_for_60_epoch5,1,156,NaN,bottle,bear,0,bear9-boat2.png,
gauss_6_sup_RN50_gauss_6_for_60_epoch5,1,157,NaN,bottle,bear,0,bear9-bottle2.png,
gauss_6_sup_RN50_gauss_6_for_60_epoch5,1,158,NaN,cat,bear,0,bear9-dog1.png,
gauss_6_sup_RN50_gauss_6_for_60_epoch5,1,159,NaN,keyboard,bear,0,bear9-keyboard3.png,
gauss_6_sup_RN50_gauss_6_for_60_epoch5,1,160,NaN,elephant,bear,0,bear9-knife2.png,
gauss_6_sup_RN50_gauss_6_for_60_epoch5,1,161,NaN,bicycle,bicycle,0,bicycle1-airplane2.png,
gauss_6_sup_RN50_gauss_6_for_60_epoch5,1,162,NaN,elephant,bicycle,0,bicycle1-bear1.png,
gauss_6_sup_RN50_gauss_6_for_60_epoch5,1,163,NaN,bicycle,bicycle,0,bicycle1-bicycle3.png,
gauss_6_sup_RN50_gauss_6_for_60_epoch5,1,164,NaN,bird,bicycle,0,bicycle1-bird1.png,
gauss_6_sup_RN50_gauss_6_for_60_epoch5,1,165,NaN,elephant,bicycle,0,bicycle1-boat3.png,
gauss_6_sup_RN50_gauss_6_for_60_epoch5,1,166,NaN,bicycle,bicycle,0,bicycle1-bottle3.png,
gauss_6_sup_RN50_gauss_6_for_60_epoch5,1,167,NaN,clock,bicycle,0,bicycle1-chair1.png,
gauss_6_sup_RN50_gauss_6_for_60_epoch5,1,168,NaN,bicycle,bicycle,0,bicycle1-clock3.png,
gauss_6_sup_RN50_gauss_6_for_60_epoch5,1,169,NaN,cat,bicycle,0,bicycle1-dog3.png,
gauss_6_sup_RN50_gauss_6_for_60_epoch5,1,170,NaN,elephant,bicycle,0,bicycle1-elephant2.png,
gauss_6_sup_RN50_gauss_6_for_60_epoch5,1,171,NaN,bottle,bicycle,0,bicycle1-knife3.png,
gauss_6_sup_RN50_gauss_6_for_60_epoch5,1,172,NaN,chair,bicycle,0,bicycle1-oven1.png,
gauss_6_sup_RN50_gauss_6_for_60_epoch5,1,173,NaN,truck,bicycle,0,bicycle1-truck1.png,
gauss_6_sup_RN50_gauss_6_for_60_epoch5,1,174,NaN,car,bicycle,0,bicycle10-airplane2.png,
gauss_6_sup_RN50_gauss_6_for_60_epoch5,1,175,NaN,elephant,bicycle,0,bicycle10-boat3.png,
gauss_6_sup_RN50_gauss_6_for_60_epoch5,1,176,NaN,bicycle,bicycle,0,bicycle10-clock2.png,
gauss_6_sup_RN50_gauss_6_for_60_epoch5,1,177,NaN,dog,bicycle,0,bicycle10-dog3.png,
gauss_6_sup_RN50_gauss_6_for_60_epoch5,1,178,NaN,elephant,bicycle,0,bicycle10-elephant2.png,
gauss_6_sup_RN50_gauss_6_for_60_epoch5,1,179,NaN,bicycle,bicycle,0,bicycle2-bicycle1.png,
gauss_6_sup_RN50_gauss_6_for_60_epoch5,1,180,NaN,knife,bicycle,0,bicycle2-bird3.png,
gauss_6_sup_RN50_gauss_6_for_60_epoch5,1,181,NaN,bicycle,bicycle,0,bicycle2-bottle1.png,
gauss_6_sup_RN50_gauss_6_for_60_epoch5,1,182,NaN,car,bicycle,0,bicycle2-car2.png,
gauss_6_sup_RN50_gauss_6_for_60_epoch5,1,183,NaN,cat,bicycle,0,bicycle2-dog1.png,
gauss_6_sup_RN50_gauss_6_for_60_epoch5,1,184,NaN,elephant,bicycle,0,bicycle2-keyboard2.png,
gauss_6_sup_RN50_gauss_6_for_60_epoch5,1,185,NaN,knife,bicycle,0,bicycle2-knife2.png,
gauss_6_sup_RN50_gauss_6_for_60_epoch5,1,186,NaN,bird,bicycle,0,bicycle3-bird1.png,
gauss_6_sup_RN50_gauss_6_for_60_epoch5,1,187,NaN,elephant,bicycle,0,bicycle3-elephant2.png,
gauss_6_sup_RN50_gauss_6_for_60_epoch5,1,188,NaN,bicycle,bicycle,0,bicycle3-keyboard1.png,
gauss_6_sup_RN50_gauss_6_for_60_epoch5,1,189,NaN,bottle,bicycle,0,bicycle3-oven3.png,
gauss_6_sup_RN50_gauss_6_for_60_epoch5,1,190,NaN,bottle,bicycle,0,bicycle3-truck3.png,
gauss_6_sup_RN50_gauss_6_for_60_epoch5,1,191,NaN,bicycle,bicycle,0,bicycle4-airplane1.png,
gauss_6_sup_RN50_gauss_6_for_60_epoch5,1,192,NaN,bicycle,bicycle,0,bicycle4-bicycle3.png,
gauss_6_sup_RN50_gauss_6_for_60_epoch5,1,193,NaN,bicycle,bicycle,0,bicycle4-boat1.png,
gauss_6_sup_RN50_gauss_6_for_60_epoch5,1,194,NaN,bicycle,bicycle,0,bicycle4-bottle1.png,
gauss_6_sup_RN50_gauss_6_for_60_epoch5,1,195,NaN,bicycle,bicycle,0,bicycle4-car2.png,
gauss_6_sup_RN50_gauss_6_for_60_epoch5,1,196,NaN,dog,bicycle,0,bicycle4-cat1.png,
gauss_6_sup_RN50_gauss_6_for_60_epoch5,1,197,NaN,chair,bicycle,0,bicycle4-chair2.png,
gauss_6_sup_RN50_gauss_6_for_60_epoch5,1,198,NaN,bicycle,bicycle,0,bicycle4-clock3.png,
gauss_6_sup_RN50_gauss_6_for_60_epoch5,1,199,NaN,bottle,bicycle,0,bicycle4-keyboard3.png,
gauss_6_sup_RN50_gauss_6_for_60_epoch5,1,200,NaN,bottle,bicycle,0,bicycle4-knife3.png,
gauss_6_sup_RN50_gauss_6_for_60_epoch5,1,201,NaN,elephant,bicycle,0,bicycle4-oven3.png,
gauss_6_sup_RN50_gauss_6_for_60_epoch5,1,202,NaN,bottle,bicycle,0,bicycle4-truck3.png,
gauss_6_sup_RN50_gauss_6_for_60_epoch5,1,203,NaN,elephant,bicycle,0,bicycle5-bear1.png,
gauss_6_sup_RN50_gauss_6_for_60_epoch5,1,204,NaN,bicycle,bicycle,0,bicycle5-bottle3.png,
gauss_6_sup_RN50_gauss_6_for_60_epoch5,1,205,NaN,boat,bicycle,0,bicycle5-car3.png,
gauss_6_sup_RN50_gauss_6_for_60_epoch5,1,206,NaN,dog,bicycle,0,bicycle5-cat1.png,
gauss_6_sup_RN50_gauss_6_for_60_epoch5,1,207,NaN,clock,bicycle,0,bicycle5-chair2.png,
gauss_6_sup_RN50_gauss_6_for_60_epoch5,1,208,NaN,cat,bicycle,0,bicycle5-dog2.png,
gauss_6_sup_RN50_gauss_6_for_60_epoch5,1,209,NaN,clock,bicycle,0,bicycle5-elephant1.png,
gauss_6_sup_RN50_gauss_6_for_60_epoch5,1,210,NaN,clock,bicycle,0,bicycle5-keyboard3.png,
gauss_6_sup_RN50_gauss_6_for_60_epoch5,1,211,NaN,bottle,bicycle,0,bicycle5-oven3.png,
gauss_6_sup_RN50_gauss_6_for_60_epoch5,1,212,NaN,airplane,bicycle,0,bicycle6-airplane2.png,
gauss_6_sup_RN50_gauss_6_for_60_epoch5,1,213,NaN,oven,bicycle,0,bicycle6-bicycle3.png,
gauss_6_sup_RN50_gauss_6_for_60_epoch5,1,214,NaN,truck,bicycle,0,bicycle6-boat2.png,
gauss_6_sup_RN50_gauss_6_for_60_epoch5,1,215,NaN,airplane,bicycle,0,bicycle6-car2.png,
gauss_6_sup_RN50_gauss_6_for_60_epoch5,1,216,NaN,cat,bicycle,0,bicycle6-cat1.png,
gauss_6_sup_RN50_gauss_6_for_60_epoch5,1,217,NaN,elephant,bicycle,0,bicycle6-dog2.png,
gauss_6_sup_RN50_gauss_6_for_60_epoch5,1,218,NaN,bird,bicycle,0,bicycle7-bear2.png,
gauss_6_sup_RN50_gauss_6_for_60_epoch5,1,219,NaN,bicycle,bicycle,0,bicycle7-bicycle2.png,
gauss_6_sup_RN50_gauss_6_for_60_epoch5,1,220,NaN,dog,bicycle,0,bicycle7-cat1.png,
gauss_6_sup_RN50_gauss_6_for_60_epoch5,1,221,NaN,bicycle,bicycle,0,bicycle7-clock3.png,
gauss_6_sup_RN50_gauss_6_for_60_epoch5,1,222,NaN,elephant,bicycle,0,bicycle7-elephant2.png,
gauss_6_sup_RN50_gauss_6_for_60_epoch5,1,223,NaN,oven,bicycle,0,bicycle7-knife2.png,
gauss_6_sup_RN50_gauss_6_for_60_epoch5,1,224,NaN,bottle,bicycle,0,bicycle7-oven1.png,
gauss_6_sup_RN50_gauss_6_for_60_epoch5,1,225,NaN,bottle,bicycle,0,bicycle7-truck3.png,
gauss_6_sup_RN50_gauss_6_for_60_epoch5,1,226,NaN,elephant,bicycle,0,bicycle8-bear2.png,
gauss_6_sup_RN50_gauss_6_for_60_epoch5,1,227,NaN,bicycle,bicycle,0,bicycle8-bird2.png,
gauss_6_sup_RN50_gauss_6_for_60_epoch5,1,228,NaN,bicycle,bicycle,0,bicycle8-boat1.png,
gauss_6_sup_RN50_gauss_6_for_60_epoch5,1,229,NaN,chair,bicycle,0,bicycle8-chair2.png,
gauss_6_sup_RN50_gauss_6_for_60_epoch5,1,230,NaN,bicycle,bicycle,0,bicycle8-clock3.png,
gauss_6_sup_RN50_gauss_6_for_60_epoch5,1,231,NaN,bicycle,bicycle,0,bicycle8-truck1.png,
gauss_6_sup_RN50_gauss_6_for_60_epoch5,1,232,NaN,car,bicycle,0,bicycle9-airplane2.png,
gauss_6_sup_RN50_gauss_6_for_60_epoch5,1,233,NaN,elephant,bicycle,0,bicycle9-bear1.png,
gauss_6_sup_RN50_gauss_6_for_60_epoch5,1,234,NaN,knife,bicycle,0,bicycle9-bird3.png,
gauss_6_sup_RN50_gauss_6_for_60_epoch5,1,235,NaN,bicycle,bicycle,0,bicycle9-bottle1.png,
gauss_6_sup_RN50_gauss_6_for_60_epoch5,1,236,NaN,bicycle,bicycle,0,bicycle9-car1.png,
gauss_6_sup_RN50_gauss_6_for_60_epoch5,1,237,NaN,cat,bicycle,0,bicycle9-cat3.png,
gauss_6_sup_RN50_gauss_6_for_60_epoch5,1,238,NaN,truck,bicycle,0,bicycle9-chair1.png,
gauss_6_sup_RN50_gauss_6_for_60_epoch5,1,239,NaN,bottle,bicycle,0,bicycle9-keyboard3.png,
gauss_6_sup_RN50_gauss_6_for_60_epoch5,1,240,NaN,bottle,bicycle,0,bicycle9-knife3.png,
gauss_6_sup_RN50_gauss_6_for_60_epoch5,1,241,NaN,airplane,bird,0,bird1-airplane2.png,
gauss_6_sup_RN50_gauss_6_for_60_epoch5,1,242,NaN,bear,bird,0,bird1-bear1.png,
gauss_6_sup_RN50_gauss_6_for_60_epoch5,1,243,NaN,bird,bird,0,bird1-bicycle2.png,
gauss_6_sup_RN50_gauss_6_for_60_epoch5,1,244,NaN,airplane,bird,0,bird1-boat1.png,
gauss_6_sup_RN50_gauss_6_for_60_epoch5,1,245,NaN,chair,bird,0,bird1-chair2.png,
gauss_6_sup_RN50_gauss_6_for_60_epoch5,1,246,NaN,cat,bird,0,bird1-clock3.png,
gauss_6_sup_RN50_gauss_6_for_60_epoch5,1,247,NaN,elephant,bird,0,bird1-elephant2.png,
gauss_6_sup_RN50_gauss_6_for_60_epoch5,1,248,NaN,bird,bird,0,bird1-keyboard3.png,
gauss_6_sup_RN50_gauss_6_for_60_epoch5,1,249,NaN,bottle,bird,0,bird1-knife3.png,
gauss_6_sup_RN50_gauss_6_for_60_epoch5,1,250,NaN,airplane,bird,0,bird1-oven1.png,
gauss_6_sup_RN50_gauss_6_for_60_epoch5,1,251,NaN,truck,bird,0,bird1-truck1.png,
gauss_6_sup_RN50_gauss_6_for_60_epoch5,1,252,NaN,elephant,bird,0,bird10-bear2.png,
gauss_6_sup_RN50_gauss_6_for_60_epoch5,1,253,NaN,bicycle,bird,0,bird10-bicycle1.png,
gauss_6_sup_RN50_gauss_6_for_60_epoch5,1,254,NaN,bird,bird,0,bird10-bird2.png,
gauss_6_sup_RN50_gauss_6_for_60_epoch5,1,255,NaN,dog,bird,0,bird10-cat1.png,
gauss_6_sup_RN50_gauss_6_for_60_epoch5,1,256,NaN,car,bird,0,bird10-chair1.png,
gauss_6_sup_RN50_gauss_6_for_60_epoch5,1,257,NaN,bicycle,bird,0,bird10-clock1.png,
gauss_6_sup_RN50_gauss_6_for_60_epoch5,1,258,NaN,elephant,bird,0,bird10-elephant2.png,
gauss_6_sup_RN50_gauss_6_for_60_epoch5,1,259,NaN,airplane,bird,0,bird2-airplane3.png,
gauss_6_sup_RN50_gauss_6_for_60_epoch5,1,260,NaN,elephant,bird,0,bird2-bird2.png,
gauss_6_sup_RN50_gauss_6_for_60_epoch5,1,261,NaN,truck,bird,0,bird2-car3.png,
gauss_6_sup_RN50_gauss_6_for_60_epoch5,1,262,NaN,elephant,bird,0,bird2-clock3.png,
gauss_6_sup_RN50_gauss_6_for_60_epoch5,1,263,NaN,cat,bird,0,bird2-dog2.png,
gauss_6_sup_RN50_gauss_6_for_60_epoch5,1,264,NaN,knife,bird,0,bird2-knife1.png,
gauss_6_sup_RN50_gauss_6_for_60_epoch5,1,265,NaN,elephant,bird,0,bird3-bear3.png,
gauss_6_sup_RN50_gauss_6_for_60_epoch5,1,266,NaN,bird,bird,0,bird3-bird2.png,
gauss_6_sup_RN50_gauss_6_for_60_epoch5,1,267,NaN,elephant,bird,0,bird3-boat3.png,
gauss_6_sup_RN50_gauss_6_for_60_epoch5,1,268,NaN,elephant,bird,0,bird3-bottle2.png,
gauss_6_sup_RN50_gauss_6_for_60_epoch5,1,269,NaN,cat,bird,0,bird3-cat1.png,
gauss_6_sup_RN50_gauss_6_for_60_epoch5,1,270,NaN,elephant,bird,0,bird3-dog1.png,
gauss_6_sup_RN50_gauss_6_for_60_epoch5,1,271,NaN,bottle,bird,0,bird3-knife3.png,
gauss_6_sup_RN50_gauss_6_for_60_epoch5,1,272,NaN,oven,bird,0,bird3-oven1.png,
gauss_6_sup_RN50_gauss_6_for_60_epoch5,1,273,NaN,bottle,bird,0,bird3-truck3.png,
gauss_6_sup_RN50_gauss_6_for_60_epoch5,1,274,NaN,airplane,bird,0,bird4-airplane1.png,
gauss_6_sup_RN50_gauss_6_for_60_epoch5,1,275,NaN,bird,bird,0,bird4-bicycle2.png,
gauss_6_sup_RN50_gauss_6_for_60_epoch5,1,276,NaN,cat,bird,0,bird4-cat3.png,
gauss_6_sup_RN50_gauss_6_for_60_epoch5,1,277,NaN,cat,bird,0,bird4-clock1.png,
gauss_6_sup_RN50_gauss_6_for_60_epoch5,1,278,NaN,cat,bird,0,bird4-dog3.png,
gauss_6_sup_RN50_gauss_6_for_60_epoch5,1,279,NaN,airplane,bird,0,bird5-airplane3.png,
gauss_6_sup_RN50_gauss_6_for_60_epoch5,1,280,NaN,elephant,bird,0,bird5-bear3.png,
gauss_6_sup_RN50_gauss_6_for_60_epoch5,1,281,NaN,bicycle,bird,0,bird5-bicycle1.png,
gauss_6_sup_RN50_gauss_6_for_60_epoch5,1,282,NaN,bird,bird,0,bird5-bird1.png,
gauss_6_sup_RN50_gauss_6_for_60_epoch5,1,283,NaN,airplane,bird,0,bird5-car2.png,
gauss_6_sup_RN50_gauss_6_for_60_epoch5,1,284,NaN,bird,bird,0,bird5-cat2.png,
gauss_6_sup_RN50_gauss_6_for_60_epoch5,1,285,NaN,car,bird,0,bird5-chair1.png,
gauss_6_sup_RN50_gauss_6_for_60_epoch5,1,286,NaN,dog,bird,0,bird5-dog2.png,
gauss_6_sup_RN50_gauss_6_for_60_epoch5,1,287,NaN,bottle,bird,0,bird5-keyboard2.png,
gauss_6_sup_RN50_gauss_6_for_60_epoch5,1,288,NaN,truck,bird,0,bird5-oven3.png,
gauss_6_sup_RN50_gauss_6_for_60_epoch5,1,289,NaN,car,bird,0,bird5-truck2.png,
gauss_6_sup_RN50_gauss_6_for_60_epoch5,1,290,NaN,airplane,bird,0,bird6-airplane2.png,
gauss_6_sup_RN50_gauss_6_for_60_epoch5,1,291,NaN,boat,bird,0,bird6-boat2.png,
gauss_6_sup_RN50_gauss_6_for_60_epoch5,1,292,NaN,bird,bird,0,bird6-bottle3.png,
gauss_6_sup_RN50_gauss_6_for_60_epoch5,1,293,NaN,boat,bird,0,bird6-car3.png,
gauss_6_sup_RN50_gauss_6_for_60_epoch5,1,294,NaN,elephant,bird,0,bird6-elephant2.png,
gauss_6_sup_RN50_gauss_6_for_60_epoch5,1,295,NaN,airplane,bird,0,bird6-oven1.png,
gauss_6_sup_RN50_gauss_6_for_60_epoch5,1,296,NaN,truck,bird,0,bird6-truck2.png,
gauss_6_sup_RN50_gauss_6_for_60_epoch5,1,297,NaN,elephant,bird,0,bird7-bird2.png,
gauss_6_sup_RN50_gauss_6_for_60_epoch5,1,298,NaN,bicycle,bird,0,bird7-boat1.png,
gauss_6_sup_RN50_gauss_6_for_60_epoch5,1,299,NaN,bicycle,bird,0,bird7-bottle1.png,
gauss_6_sup_RN50_gauss_6_for_60_epoch5,1,300,NaN,bicycle,bird,0,bird7-car2.png,
gauss_6_sup_RN50_gauss_6_for_60_epoch5,1,301,NaN,cat,bird,0,bird7-cat3.png,
gauss_6_sup_RN50_gauss_6_for_60_epoch5,1,302,NaN,clock,bird,0,bird7-keyboard3.png,
gauss_6_sup_RN50_gauss_6_for_60_epoch5,1,303,NaN,elephant,bird,0,bird7-knife2.png,
gauss_6_sup_RN50_gauss_6_for_60_epoch5,1,304,NaN,elephant,bird,0,bird7-oven3.png,
gauss_6_sup_RN50_gauss_6_for_60_epoch5,1,305,NaN,truck,bird,0,bird7-truck2.png,
gauss_6_sup_RN50_gauss_6_for_60_epoch5,1,306,NaN,boat,bird,0,bird8-boat3.png,
gauss_6_sup_RN50_gauss_6_for_60_epoch5,1,307,NaN,bicycle,bird,0,bird8-bottle1.png,
gauss_6_sup_RN50_gauss_6_for_60_epoch5,1,308,NaN,car,bird,0,bird8-car2.png,
gauss_6_sup_RN50_gauss_6_for_60_epoch5,1,309,NaN,truck,bird,0,bird8-chair1.png,
gauss_6_sup_RN50_gauss_6_for_60_epoch5,1,310,NaN,bird,bird,0,bird8-clock1.png,
gauss_6_sup_RN50_gauss_6_for_60_epoch5,1,311,NaN,elephant,bird,0,bird8-elephant1.png,
gauss_6_sup_RN50_gauss_6_for_60_epoch5,1,312,NaN,bottle,bird,0,bird8-keyboard2.png,
gauss_6_sup_RN50_gauss_6_for_60_epoch5,1,313,NaN,truck,bird,0,bird8-knife2.png,
gauss_6_sup_RN50_gauss_6_for_60_epoch5,1,314,NaN,elephant,bird,0,bird9-bear3.png,
gauss_6_sup_RN50_gauss_6_for_60_epoch5,1,315,NaN,bird,bird,0,bird9-bicycle3.png,
gauss_6_sup_RN50_gauss_6_for_60_epoch5,1,316,NaN,bird,bird,0,bird9-bottle3.png,
gauss_6_sup_RN50_gauss_6_for_60_epoch5,1,317,NaN,bottle,bird,0,bird9-chair1.png,
gauss_6_sup_RN50_gauss_6_for_60_epoch5,1,318,NaN,bear,bird,0,bird9-dog2.png,
gauss_6_sup_RN50_gauss_6_for_60_epoch5,1,319,NaN,elephant,bird,0,bird9-elephant2.png,
gauss_6_sup_RN50_gauss_6_for_60_epoch5,1,320,NaN,elephant,bird,0,bird9-keyboard1.png,
gauss_6_sup_RN50_gauss_6_for_60_epoch5,1,321,NaN,elephant,boat,0,boat1-bear1.png,
gauss_6_sup_RN50_gauss_6_for_60_epoch5,1,322,NaN,bird,boat,0,boat1-bicycle2.png,
gauss_6_sup_RN50_gauss_6_for_60_epoch5,1,323,NaN,knife,boat,0,boat1-bird3.png,
gauss_6_sup_RN50_gauss_6_for_60_epoch5,1,324,NaN,car,boat,0,boat1-car2.png,
gauss_6_sup_RN50_gauss_6_for_60_epoch5,1,325,NaN,bottle,boat,0,boat1-chair3.png,
gauss_6_sup_RN50_gauss_6_for_60_epoch5,1,326,NaN,elephant,boat,0,boat1-elephant3.png,
gauss_6_sup_RN50_gauss_6_for_60_epoch5,1,327,NaN,elephant,boat,0,boat1-keyboard3.png,
gauss_6_sup_RN50_gauss_6_for_60_epoch5,1,328,NaN,airplane,boat,0,boat1-oven1.png,
gauss_6_sup_RN50_gauss_6_for_60_epoch5,1,329,NaN,bottle,boat,0,boat1-truck3.png,
gauss_6_sup_RN50_gauss_6_for_60_epoch5,1,330,NaN,elephant,boat,0,boat10-bear3.png,
gauss_6_sup_RN50_gauss_6_for_60_epoch5,1,331,NaN,boat,boat,0,boat10-boat3.png,
gauss_6_sup_RN50_gauss_6_for_60_epoch5,1,332,NaN,oven,boat,0,boat10-cat1.png,
gauss_6_sup_RN50_gauss_6_for_60_epoch5,1,333,NaN,airplane,boat,0,boat10-oven1.png,
gauss_6_sup_RN50_gauss_6_for_60_epoch5,1,334,NaN,boat,boat,0,boat10-truck1.png,
gauss_6_sup_RN50_gauss_6_for_60_epoch5,1,335,NaN,airplane,boat,0,boat2-airplane1.png,
gauss_6_sup_RN50_gauss_6_for_60_epoch5,1,336,NaN,elephant,boat,0,boat2-bear3.png,
gauss_6_sup_RN50_gauss_6_for_60_epoch5,1,337,NaN,cat,boat,0,boat2-bird1.png,
gauss_6_sup_RN50_gauss_6_for_60_epoch5,1,338,NaN,bottle,boat,0,boat2-bottle2.png,
gauss_6_sup_RN50_gauss_6_for_60_epoch5,1,339,NaN,elephant,boat,0,boat2-keyboard1.png,
gauss_6_sup_RN50_gauss_6_for_60_epoch5,1,340,NaN,chair,boat,0,boat2-oven3.png,
gauss_6_sup_RN50_gauss_6_for_60_epoch5,1,341,NaN,airplane,boat,0,boat3-airplane2.png,
gauss_6_sup_RN50_gauss_6_for_60_epoch5,1,342,NaN,bicycle,boat,0,boat3-bicycle2.png,
gauss_6_sup_RN50_gauss_6_for_60_epoch5,1,343,NaN,boat,boat,0,boat3-car3.png,
gauss_6_sup_RN50_gauss_6_for_60_epoch5,1,344,NaN,oven,boat,0,boat3-cat3.png,
gauss_6_sup_RN50_gauss_6_for_60_epoch5,1,345,NaN,airplane,boat,0,boat3-chair3.png,
gauss_6_sup_RN50_gauss_6_for_60_epoch5,1,346,NaN,elephant,boat,0,boat3-clock3.png,
gauss_6_sup_RN50_gauss_6_for_60_epoch5,1,347,NaN,cat,boat,0,boat3-dog3.png,
gauss_6_sup_RN50_gauss_6_for_60_epoch5,1,348,NaN,elephant,boat,0,boat3-keyboard2.png,
gauss_6_sup_RN50_gauss_6_for_60_epoch5,1,349,NaN,oven,boat,0,boat4-bicycle3.png,
gauss_6_sup_RN50_gauss_6_for_60_epoch5,1,350,NaN,bird,boat,0,boat4-bird1.png,
gauss_6_sup_RN50_gauss_6_for_60_epoch5,1,351,NaN,bottle,boat,0,boat4-boat3.png,
gauss_6_sup_RN50_gauss_6_for_60_epoch5,1,352,NaN,bottle,boat,0,boat4-bottle2.png,
gauss_6_sup_RN50_gauss_6_for_60_epoch5,1,353,NaN,boat,boat,0,boat4-car3.png,
gauss_6_sup_RN50_gauss_6_for_60_epoch5,1,354,NaN,chair,boat,0,boat4-chair2.png,
gauss_6_sup_RN50_gauss_6_for_60_epoch5,1,355,NaN,bird,boat,0,boat4-dog2.png,
gauss_6_sup_RN50_gauss_6_for_60_epoch5,1,356,NaN,elephant,boat,0,boat4-elephant2.png,
gauss_6_sup_RN50_gauss_6_for_60_epoch5,1,357,NaN,knife,boat,0,boat4-knife2.png,
gauss_6_sup_RN50_gauss_6_for_60_epoch5,1,358,NaN,keyboard,boat,0,boat5-airplane1.png,
gauss_6_sup_RN50_gauss_6_for_60_epoch5,1,359,NaN,oven,boat,0,boat5-bicycle3.png,
gauss_6_sup_RN50_gauss_6_for_60_epoch5,1,360,NaN,bottle,boat,0,boat5-boat3.png,
gauss_6_sup_RN50_gauss_6_for_60_epoch5,1,361,NaN,bird,boat,0,boat5-car3.png,
gauss_6_sup_RN50_gauss_6_for_60_epoch5,1,362,NaN,knife,boat,0,boat5-clock3.png,
gauss_6_sup_RN50_gauss_6_for_60_epoch5,1,363,NaN,oven,boat,0,boat5-knife2.png,
gauss_6_sup_RN50_gauss_6_for_60_epoch5,1,364,NaN,airplane,boat,0,boat6-airplane2.png,
gauss_6_sup_RN50_gauss_6_for_60_epoch5,1,365,NaN,bear,boat,0,boat6-bear1.png,
gauss_6_sup_RN50_gauss_6_for_60_epoch5,1,366,NaN,cat,boat,0,boat6-bicycle2.png,
gauss_6_sup_RN50_gauss_6_for_60_epoch5,1,367,NaN,bottle,boat,0,boat6-bottle2.png,
gauss_6_sup_RN50_gauss_6_for_60_epoch5,1,368,NaN,boat,boat,0,boat6-car1.png,
gauss_6_sup_RN50_gauss_6_for_60_epoch5,1,369,NaN,cat,boat,0,boat6-cat1.png,
gauss_6_sup_RN50_gauss_6_for_60_epoch5,1,370,NaN,bottle,boat,0,boat6-clock2.png,
gauss_6_sup_RN50_gauss_6_for_60_epoch5,1,371,NaN,cat,boat,0,boat6-dog1.png,
gauss_6_sup_RN50_gauss_6_for_60_epoch5,1,372,NaN,elephant,boat,0,boat6-elephant2.png,
gauss_6_sup_RN50_gauss_6_for_60_epoch5,1,373,NaN,truck,boat,0,boat6-knife2.png,
gauss_6_sup_RN50_gauss_6_for_60_epoch5,1,374,NaN,bottle,boat,0,boat6-truck3.png,
gauss_6_sup_RN50_gauss_6_for_60_epoch5,1,375,NaN,boat,boat,0,boat7-boat2.png,
gauss_6_sup_RN50_gauss_6_for_60_epoch5,1,376,NaN,bicycle,boat,0,boat7-bottle1.png,
gauss_6_sup_RN50_gauss_6_for_60_epoch5,1,377,NaN,cat,boat,0,boat7-cat3.png,
gauss_6_sup_RN50_gauss_6_for_60_epoch5,1,378,NaN,boat,boat,0,boat7-chair1.png,
gauss_6_sup_RN50_gauss_6_for_60_epoch5,1,379,NaN,bicycle,boat,0,boat7-clock3.png,
gauss_6_sup_RN50_gauss_6_for_60_epoch5,1,380,NaN,elephant,boat,0,boat7-elephant3.png,
gauss_6_sup_RN50_gauss_6_for_60_epoch5,1,381,NaN,bird,boat,0,boat7-keyboard3.png,
gauss_6_sup_RN50_gauss_6_for_60_epoch5,1,382,NaN,truck,boat,0,boat7-oven3.png,
gauss_6_sup_RN50_gauss_6_for_60_epoch5,1,383,NaN,truck,boat,0,boat7-truck2.png,
gauss_6_sup_RN50_gauss_6_for_60_epoch5,1,384,NaN,boat,boat,0,boat8-bird2.png,
gauss_6_sup_RN50_gauss_6_for_60_epoch5,1,385,NaN,bottle,boat,0,boat8-bottle1.png,
gauss_6_sup_RN50_gauss_6_for_60_epoch5,1,386,NaN,cat,boat,0,boat8-dog3.png,
gauss_6_sup_RN50_gauss_6_for_60_epoch5,1,387,NaN,keyboard,boat,0,boat8-elephant1.png,
gauss_6_sup_RN50_gauss_6_for_60_epoch5,1,388,NaN,knife,boat,0,boat8-knife1.png,
gauss_6_sup_RN50_gauss_6_for_60_epoch5,1,389,NaN,airplane,boat,0,boat8-oven1.png,
gauss_6_sup_RN50_gauss_6_for_60_epoch5,1,390,NaN,truck,boat,0,boat8-truck2.png,
gauss_6_sup_RN50_gauss_6_for_60_epoch5,1,391,NaN,airplane,boat,0,boat9-airplane2.png,
gauss_6_sup_RN50_gauss_6_for_60_epoch5,1,392,NaN,elephant,boat,0,boat9-bear3.png,
gauss_6_sup_RN50_gauss_6_for_60_epoch5,1,393,NaN,elephant,boat,0,boat9-bird1.png,
gauss_6_sup_RN50_gauss_6_for_60_epoch5,1,394,NaN,bottle,boat,0,boat9-boat3.png,
gauss_6_sup_RN50_gauss_6_for_60_epoch5,1,395,NaN,cat,boat,0,boat9-cat3.png,
gauss_6_sup_RN50_gauss_6_for_60_epoch5,1,396,NaN,chair,boat,0,boat9-chair2.png,
gauss_6_sup_RN50_gauss_6_for_60_epoch5,1,397,NaN,boat,boat,0,boat9-clock1.png,
gauss_6_sup_RN50_gauss_6_for_60_epoch5,1,398,NaN,elephant,boat,0,boat9-dog2.png,
gauss_6_sup_RN50_gauss_6_for_60_epoch5,1,399,NaN,elephant,boat,0,boat9-keyboard2.png,
gauss_6_sup_RN50_gauss_6_for_60_epoch5,1,400,NaN,truck,boat,0,boat9-knife2.png,
gauss_6_sup_RN50_gauss_6_for_60_epoch5,1,401,NaN,elephant,bottle,0,bottle1-bear1.png,
gauss_6_sup_RN50_gauss_6_for_60_epoch5,1,402,NaN,knife,bottle,0,bottle1-bird3.png,
gauss_6_sup_RN50_gauss_6_for_60_epoch5,1,403,NaN,bottle,bottle,0,bottle1-car1.png,
gauss_6_sup_RN50_gauss_6_for_60_epoch5,1,404,NaN,cat,bottle,0,bottle1-cat3.png,
gauss_6_sup_RN50_gauss_6_for_60_epoch5,1,405,NaN,chair,bottle,0,bottle1-chair2.png,
gauss_6_sup_RN50_gauss_6_for_60_epoch5,1,406,NaN,bicycle,bottle,0,bottle1-clock1.png,
gauss_6_sup_RN50_gauss_6_for_60_epoch5,1,407,NaN,chair,bottle,0,bottle1-dog2.png,
gauss_6_sup_RN50_gauss_6_for_60_epoch5,1,408,NaN,clock,bottle,0,bottle1-keyboard3.png,
gauss_6_sup_RN50_gauss_6_for_60_epoch5,1,409,NaN,elephant,bottle,0,bottle10-bear2.png,
gauss_6_sup_RN50_gauss_6_for_60_epoch5,1,410,NaN,bottle,bottle,0,bottle10-boat3.png,
gauss_6_sup_RN50_gauss_6_for_60_epoch5,1,411,NaN,boat,bottle,0,bottle10-car1.png,
gauss_6_sup_RN50_gauss_6_for_60_epoch5,1,412,NaN,bottle,bottle,0,bottle10-clock2.png,
gauss_6_sup_RN50_gauss_6_for_60_epoch5,1,413,NaN,cat,bottle,0,bottle10-dog1.png,
gauss_6_sup_RN50_gauss_6_for_60_epoch5,1,414,NaN,bottle,bottle,0,bottle10-truck3.png,
gauss_6_sup_RN50_gauss_6_for_60_epoch5,1,415,NaN,bird,bottle,0,bottle2-bottle3.png,
gauss_6_sup_RN50_gauss_6_for_60_epoch5,1,416,NaN,airplane,bottle,0,bottle2-car2.png,
gauss_6_sup_RN50_gauss_6_for_60_epoch5,1,417,NaN,bottle,bottle,0,bottle2-chair3.png,
gauss_6_sup_RN50_gauss_6_for_60_epoch5,1,418,NaN,bicycle,bottle,0,bottle2-clock1.png,
gauss_6_sup_RN50_gauss_6_for_60_epoch5,1,419,NaN,elephant,bottle,0,bottle2-elephant1.png,
gauss_6_sup_RN50_gauss_6_for_60_epoch5,1,420,NaN,bottle,bottle,0,bottle2-knife3.png,
gauss_6_sup_RN50_gauss_6_for_60_epoch5,1,421,NaN,bottle,bottle,0,bottle3-airplane2.png,
gauss_6_sup_RN50_gauss_6_for_60_epoch5,1,422,NaN,elephant,bottle,0,bottle3-bear2.png,
gauss_6_sup_RN50_gauss_6_for_60_epoch5,1,423,NaN,oven,bottle,0,bottle3-bicycle3.png,
gauss_6_sup_RN50_gauss_6_for_60_epoch5,1,424,NaN,cat,bottle,0,bottle3-bird1.png,
gauss_6_sup_RN50_gauss_6_for_60_epoch5,1,425,NaN,bottle,bottle,0,bottle3-boat3.png,
gauss_6_sup_RN50_gauss_6_for_60_epoch5,1,426,NaN,bird,bottle,0,bottle3-bottle3.png,
gauss_6_sup_RN50_gauss_6_for_60_epoch5,1,427,NaN,bottle,bottle,0,bottle3-cat3.png,
gauss_6_sup_RN50_gauss_6_for_60_epoch5,1,428,NaN,bottle,bottle,0,bottle3-chair3.png,
gauss_6_sup_RN50_gauss_6_for_60_epoch5,1,429,NaN,bottle,bottle,0,bottle3-knife3.png,
gauss_6_sup_RN50_gauss_6_for_60_epoch5,1,430,NaN,keyboard,bottle,0,bottle4-airplane1.png,
gauss_6_sup_RN50_gauss_6_for_60_epoch5,1,431,NaN,bicycle,bottle,0,bottle4-bicycle1.png,
gauss_6_sup_RN50_gauss_6_for_60_epoch5,1,432,NaN,boat,bottle,0,bottle4-car3.png,
gauss_6_sup_RN50_gauss_6_for_60_epoch5,1,433,NaN,knife,bottle,0,bottle4-dog2.png,
gauss_6_sup_RN50_gauss_6_for_60_epoch5,1,434,NaN,bottle,bottle,0,bottle4-oven2.png,
gauss_6_sup_RN50_gauss_6_for_60_epoch5,1,435,NaN,truck,bottle,0,bottle4-truck1.png,
gauss_6_sup_RN50_gauss_6_for_60_epoch5,1,436,NaN,bottle,bottle,0,bottle5-airplane1.png,
gauss_6_sup_RN50_gauss_6_for_60_epoch5,1,437,NaN,bottle,bottle,0,bottle5-bird3.png,
gauss_6_sup_RN50_gauss_6_for_60_epoch5,1,438,NaN,bottle,bottle,0,bottle5-boat1.png,
gauss_6_sup_RN50_gauss_6_for_60_epoch5,1,439,NaN,cat,bottle,0,bottle5-cat1.png,
gauss_6_sup_RN50_gauss_6_for_60_epoch5,1,440,NaN,chair,bottle,0,bottle5-chair1.png,
gauss_6_sup_RN50_gauss_6_for_60_epoch5,1,441,NaN,cat,bottle,0,bottle5-clock3.png,
gauss_6_sup_RN50_gauss_6_for_60_epoch5,1,442,NaN,elephant,bottle,0,bottle5-elephant1.png,
gauss_6_sup_RN50_gauss_6_for_60_epoch5,1,443,NaN,clock,bottle,0,bottle5-keyboard2.png,
gauss_6_sup_RN50_gauss_6_for_60_epoch5,1,444,NaN,bicycle,bottle,0,bottle5-knife1.png,
gauss_6_sup_RN50_gauss_6_for_60_epoch5,1,445,NaN,bottle,bottle,0,bottle5-oven2.png,
gauss_6_sup_RN50_gauss_6_for_60_epoch5,1,446,NaN,truck,bottle,0,bottle5-truck1.png,
gauss_6_sup_RN50_gauss_6_for_60_epoch5,1,447,NaN,keyboard,bottle,0,bottle6-airplane1.png,
gauss_6_sup_RN50_gauss_6_for_60_epoch5,1,448,NaN,elephant,bottle,0,bottle6-bear2.png,
gauss_6_sup_RN50_gauss_6_for_60_epoch5,1,449,NaN,elephant,bottle,0,bottle6-bicycle3.png,
gauss_6_sup_RN50_gauss_6_for_60_epoch5,1,450,NaN,elephant,bottle,0,bottle6-bird1.png,
gauss_6_sup_RN50_gauss_6_for_60_epoch5,1,451,NaN,bottle,bottle,0,bottle6-boat3.png,
gauss_6_sup_RN50_gauss_6_for_60_epoch5,1,452,NaN,bottle,bottle,0,bottle6-bottle3.png,
gauss_6_sup_RN50_gauss_6_for_60_epoch5,1,453,NaN,chair,bottle,0,bottle6-chair2.png,
gauss_6_sup_RN50_gauss_6_for_60_epoch5,1,454,NaN,cat,bottle,0,bottle6-dog3.png,
gauss_6_sup_RN50_gauss_6_for_60_epoch5,1,455,NaN,bottle,bottle,0,bottle6-knife3.png,
gauss_6_sup_RN50_gauss_6_for_60_epoch5,1,456,NaN,elephant,bottle,0,bottle6-oven3.png,
gauss_6_sup_RN50_gauss_6_for_60_epoch5,1,457,NaN,airplane,bottle,0,bottle7-airplane3.png,
gauss_6_sup_RN50_gauss_6_for_60_epoch5,1,458,NaN,elephant,bottle,0,bottle7-bear1.png,
gauss_6_sup_RN50_gauss_6_for_60_epoch5,1,459,NaN,bottle,bottle,0,bottle7-boat3.png,
gauss_6_sup_RN50_gauss_6_for_60_epoch5,1,460,NaN,cat,bottle,0,bottle7-cat2.png,
gauss_6_sup_RN50_gauss_6_for_60_epoch5,1,461,NaN,oven,bottle,0,bottle7-clock1.png,
gauss_6_sup_RN50_gauss_6_for_60_epoch5,1,462,NaN,elephant,bottle,0,bottle7-elephant2.png,
gauss_6_sup_RN50_gauss_6_for_60_epoch5,1,463,NaN,bottle,bottle,0,bottle7-keyboard2.png,
gauss_6_sup_RN50_gauss_6_for_60_epoch5,1,464,NaN,truck,bottle,0,bottle7-oven2.png,
gauss_6_sup_RN50_gauss_6_for_60_epoch5,1,465,NaN,truck,bottle,0,bottle7-truck2.png,
gauss_6_sup_RN50_gauss_6_for_60_epoch5,1,466,NaN,bicycle,bottle,0,bottle8-bicycle1.png,
gauss_6_sup_RN50_gauss_6_for_60_epoch5,1,467,NaN,elephant,bottle,0,bottle8-bird1.png,
gauss_6_sup_RN50_gauss_6_for_60_epoch5,1,468,NaN,bottle,bottle,0,bottle8-bottle3.png,
gauss_6_sup_RN50_gauss_6_for_60_epoch5,1,469,NaN,chair,bottle,0,bottle8-dog2.png,
gauss_6_sup_RN50_gauss_6_for_60_epoch5,1,470,NaN,elephant,bottle,0,bottle8-elephant3.png,
gauss_6_sup_RN50_gauss_6_for_60_epoch5,1,471,NaN,clock,bottle,0,bottle8-keyboard3.png,
gauss_6_sup_RN50_gauss_6_for_60_epoch5,1,472,NaN,knife,bottle,0,bottle8-knife1.png,
gauss_6_sup_RN50_gauss_6_for_60_epoch5,1,473,NaN,bottle,bottle,0,bottle9-bicycle1.png,
gauss_6_sup_RN50_gauss_6_for_60_epoch5,1,474,NaN,bicycle,bottle,0,bottle9-bottle1.png,
gauss_6_sup_RN50_gauss_6_for_60_epoch5,1,475,NaN,truck,bottle,0,bottle9-car3.png,
gauss_6_sup_RN50_gauss_6_for_60_epoch5,1,476,NaN,cat,bottle,0,bottle9-cat2.png,
gauss_6_sup_RN50_gauss_6_for_60_epoch5,1,477,NaN,elephant,bottle,0,bottle9-elephant2.png,
gauss_6_sup_RN50_gauss_6_for_60_epoch5,1,478,NaN,bottle,bottle,0,bottle9-keyboard1.png,
gauss_6_sup_RN50_gauss_6_for_60_epoch5,1,479,NaN,bottle,bottle,0,bottle9-oven2.png,
gauss_6_sup_RN50_gauss_6_for_60_epoch5,1,480,NaN,bottle,bottle,0,bottle9-truck1.png,
gauss_6_sup_RN50_gauss_6_for_60_epoch5,1,481,NaN,airplane,car,0,car1-airplane1.png,
gauss_6_sup_RN50_gauss_6_for_60_epoch5,1,482,NaN,truck,car,0,car1-car2.png,
gauss_6_sup_RN50_gauss_6_for_60_epoch5,1,483,NaN,airplane,car,0,car1-chair3.png,
gauss_6_sup_RN50_gauss_6_for_60_epoch5,1,484,NaN,elephant,car,0,car1-clock2.png,
gauss_6_sup_RN50_gauss_6_for_60_epoch5,1,485,NaN,elephant,car,0,car1-dog2.png,
gauss_6_sup_RN50_gauss_6_for_60_epoch5,1,486,NaN,elephant,car,0,car1-keyboard2.png,
gauss_6_sup_RN50_gauss_6_for_60_epoch5,1,487,NaN,elephant,car,0,car1-oven3.png,
gauss_6_sup_RN50_gauss_6_for_60_epoch5,1,488,NaN,bicycle,car,0,car10-bicycle2.png,
gauss_6_sup_RN50_gauss_6_for_60_epoch5,1,489,NaN,bottle,car,0,car10-bottle3.png,
gauss_6_sup_RN50_gauss_6_for_60_epoch5,1,490,NaN,truck,car,0,car10-car1.png,
gauss_6_sup_RN50_gauss_6_for_60_epoch5,1,491,NaN,car,car,0,car10-chair1.png,
gauss_6_sup_RN50_gauss_6_for_60_epoch5,1,492,NaN,elephant,car,0,car10-dog1.png,
gauss_6_sup_RN50_gauss_6_for_60_epoch5,1,493,NaN,elephant,car,0,car10-elephant2.png,
gauss_6_sup_RN50_gauss_6_for_60_epoch5,1,494,NaN,keyboard,car,0,car10-keyboard2.png,
gauss_6_sup_RN50_gauss_6_for_60_epoch5,1,495,NaN,knife,car,0,car2-bird3.png,
gauss_6_sup_RN50_gauss_6_for_60_epoch5,1,496,NaN,car,car,0,car2-car3.png,
gauss_6_sup_RN50_gauss_6_for_60_epoch5,1,497,NaN,cat,car,0,car2-cat3.png,
gauss_6_sup_RN50_gauss_6_for_60_epoch5,1,498,NaN,car,car,0,car2-chair1.png,
gauss_6_sup_RN50_gauss_6_for_60_epoch5,1,499,NaN,bottle,car,0,car2-knife3.png,
gauss_6_sup_RN50_gauss_6_for_60_epoch5,1,500,NaN,airplane,car,0,car3-airplane3.png,
gauss_6_sup_RN50_gauss_6_for_60_epoch5,1,501,NaN,bicycle,car,0,car3-bird2.png,
gauss_6_sup_RN50_gauss_6_for_60_epoch5,1,502,NaN,car,car,0,car3-boat1.png,
gauss_6_sup_RN50_gauss_6_for_60_epoch5,1,503,NaN,bottle,car,0,car3-bottle3.png,
gauss_6_sup_RN50_gauss_6_for_60_epoch5,1,504,NaN,chair,car,0,car3-dog2.png,
gauss_6_sup_RN50_gauss_6_for_60_epoch5,1,505,NaN,elephant,car,0,car3-elephant3.png,
gauss_6_sup_RN50_gauss_6_for_60_epoch5,1,506,NaN,bottle,car,0,car3-oven3.png,
gauss_6_sup_RN50_gauss_6_for_60_epoch5,1,507,NaN,car,car,0,car3-truck1.png,
gauss_6_sup_RN50_gauss_6_for_60_epoch5,1,508,NaN,elephant,car,0,car4-bear3.png,
gauss_6_sup_RN50_gauss_6_for_60_epoch5,1,509,NaN,truck,car,0,car4-bicycle3.png,
gauss_6_sup_RN50_gauss_6_for_60_epoch5,1,510,NaN,bird,car,0,car4-bird1.png,
gauss_6_sup_RN50_gauss_6_for_60_epoch5,1,511,NaN,car,car,0,car4-boat1.png,
gauss_6_sup_RN50_gauss_6_for_60_epoch5,1,512,NaN,bottle,car,0,car4-bottle1.png,
gauss_6_sup_RN50_gauss_6_for_60_epoch5,1,513,NaN,car,car,0,car4-car2.png,
gauss_6_sup_RN50_gauss_6_for_60_epoch5,1,514,NaN,cat,car,0,car4-cat3.png,
gauss_6_sup_RN50_gauss_6_for_60_epoch5,1,515,NaN,bottle,car,0,car4-clock1.png,
gauss_6_sup_RN50_gauss_6_for_60_epoch5,1,516,NaN,bird,car,0,car4-elephant3.png,
gauss_6_sup_RN50_gauss_6_for_60_epoch5,1,517,NaN,elephant,car,0,car4-oven2.png,
gauss_6_sup_RN50_gauss_6_for_60_epoch5,1,518,NaN,truck,car,0,car5-airplane3.png,
gauss_6_sup_RN50_gauss_6_for_60_epoch5,1,519,NaN,elephant,car,0,car5-bear3.png,
gauss_6_sup_RN50_gauss_6_for_60_epoch5,1,520,NaN,bottle,car,0,car5-bottle1.png,
gauss_6_sup_RN50_gauss_6_for_60_epoch5,1,521,NaN,oven,car,0,car5-cat1.png,
gauss_6_sup_RN50_gauss_6_for_60_epoch5,1,522,NaN,keyboard,car,0,car5-keyboard3.png,
gauss_6_sup_RN50_gauss_6_for_60_epoch5,1,523,NaN,truck,car,0,car5-knife2.png,
gauss_6_sup_RN50_gauss_6_for_60_epoch5,1,524,NaN,keyboard,car,0,car5-oven2.png,
gauss_6_sup_RN50_gauss_6_for_60_epoch5,1,525,NaN,car,car,0,car5-truck3.png,
gauss_6_sup_RN50_gauss_6_for_60_epoch5,1,526,NaN,elephant,car,0,car6-bear1.png,
gauss_6_sup_RN50_gauss_6_for_60_epoch5,1,527,NaN,chair,car,0,car6-bicycle3.png,
gauss_6_sup_RN50_gauss_6_for_60_epoch5,1,528,NaN,car,car,0,car6-boat1.png,
gauss_6_sup_RN50_gauss_6_for_60_epoch5,1,529,NaN,chair,car,0,car6-bottle1.png,
gauss_6_sup_RN50_gauss_6_for_60_epoch5,1,530,NaN,airplane,car,0,car6-chair3.png,
gauss_6_sup_RN50_gauss_6_for_60_epoch5,1,531,NaN,elephant,car,0,car6-elephant3.png,
gauss_6_sup_RN50_gauss_6_for_60_epoch5,1,532,NaN,truck,car,0,car6-knife1.png,
gauss_6_sup_RN50_gauss_6_for_60_epoch5,1,533,NaN,bottle,car,0,car6-truck3.png,
gauss_6_sup_RN50_gauss_6_for_60_epoch5,1,534,NaN,airplane,car,0,car7-airplane2.png,
gauss_6_sup_RN50_gauss_6_for_60_epoch5,1,535,NaN,elephant,car,0,car7-bear1.png,
gauss_6_sup_RN50_gauss_6_for_60_epoch5,1,536,NaN,airplane,car,0,car7-bird3.png,
gauss_6_sup_RN50_gauss_6_for_60_epoch5,1,537,NaN,boat,car,0,car7-boat3.png,
gauss_6_sup_RN50_gauss_6_for_60_epoch5,1,538,NaN,car,car,0,car7-car1.png,
gauss_6_sup_RN50_gauss_6_for_60_epoch5,1,539,NaN,cat,car,0,car7-clock1.png,
gauss_6_sup_RN50_gauss_6_for_60_epoch5,1,540,NaN,dog,car,0,car7-dog3.png,
gauss_6_sup_RN50_gauss_6_for_60_epoch5,1,541,NaN,elephant,car,0,car7-elephant3.png,
gauss_6_sup_RN50_gauss_6_for_60_epoch5,1,542,NaN,truck,car,0,car7-keyboard3.png,
gauss_6_sup_RN50_gauss_6_for_60_epoch5,1,543,NaN,keyboard,car,0,car7-oven2.png,
gauss_6_sup_RN50_gauss_6_for_60_epoch5,1,544,NaN,car,car,0,car8-airplane3.png,
gauss_6_sup_RN50_gauss_6_for_60_epoch5,1,545,NaN,elephant,car,0,car8-bear1.png,
gauss_6_sup_RN50_gauss_6_for_60_epoch5,1,546,NaN,bicycle,car,0,car8-bicycle2.png,
gauss_6_sup_RN50_gauss_6_for_60_epoch5,1,547,NaN,truck,car,0,car8-boat3.png,
gauss_6_sup_RN50_gauss_6_for_60_epoch5,1,548,NaN,cat,car,0,car8-cat1.png,
gauss_6_sup_RN50_gauss_6_for_60_epoch5,1,549,NaN,car,car,0,car8-chair1.png,
gauss_6_sup_RN50_gauss_6_for_60_epoch5,1,550,NaN,car,car,0,car8-clock2.png,
gauss_6_sup_RN50_gauss_6_for_60_epoch5,1,551,NaN,cat,car,0,car8-dog1.png,
gauss_6_sup_RN50_gauss_6_for_60_epoch5,1,552,NaN,truck,car,0,car8-knife2.png,
gauss_6_sup_RN50_gauss_6_for_60_epoch5,1,553,NaN,bottle,car,0,car8-truck3.png,
gauss_6_sup_RN50_gauss_6_for_60_epoch5,1,554,NaN,bicycle,car,0,car9-bicycle2.png,
gauss_6_sup_RN50_gauss_6_for_60_epoch5,1,555,NaN,bottle,car,0,car9-bird1.png,
gauss_6_sup_RN50_gauss_6_for_60_epoch5,1,556,NaN,cat,car,0,car9-cat1.png,
gauss_6_sup_RN50_gauss_6_for_60_epoch5,1,557,NaN,car,car,0,car9-clock2.png,
gauss_6_sup_RN50_gauss_6_for_60_epoch5,1,558,NaN,elephant,car,0,car9-keyboard2.png,
gauss_6_sup_RN50_gauss_6_for_60_epoch5,1,559,NaN,car,car,0,car9-knife1.png,
gauss_6_sup_RN50_gauss_6_for_60_epoch5,1,560,NaN,bottle,car,0,car9-truck3.png,
gauss_6_sup_RN50_gauss_6_for_60_epoch5,1,561,NaN,cat,cat,0,cat1-airplane1.png,
gauss_6_sup_RN50_gauss_6_for_60_epoch5,1,562,NaN,elephant,cat,0,cat1-bird1.png,
gauss_6_sup_RN50_gauss_6_for_60_epoch5,1,563,NaN,bottle,cat,0,cat1-boat1.png,
gauss_6_sup_RN50_gauss_6_for_60_epoch5,1,564,NaN,car,cat,0,cat1-car2.png,
gauss_6_sup_RN50_gauss_6_for_60_epoch5,1,565,NaN,cat,cat,0,cat1-cat3.png,
gauss_6_sup_RN50_gauss_6_for_60_epoch5,1,566,NaN,chair,cat,0,cat1-chair2.png,
gauss_6_sup_RN50_gauss_6_for_60_epoch5,1,567,NaN,cat,cat,0,cat1-dog1.png,
gauss_6_sup_RN50_gauss_6_for_60_epoch5,1,568,NaN,elephant,cat,0,cat1-keyboard3.png,
gauss_6_sup_RN50_gauss_6_for_60_epoch5,1,569,NaN,airplane,cat,0,cat1-oven1.png,
gauss_6_sup_RN50_gauss_6_for_60_epoch5,1,570,NaN,cat,cat,0,cat10-airplane3.png,
gauss_6_sup_RN50_gauss_6_for_60_epoch5,1,571,NaN,elephant,cat,0,cat10-bear1.png,
gauss_6_sup_RN50_gauss_6_for_60_epoch5,1,572,NaN,bicycle,cat,0,cat10-bicycle1.png,
gauss_6_sup_RN50_gauss_6_for_60_epoch5,1,573,NaN,elephant,cat,0,cat10-bird2.png,
gauss_6_sup_RN50_gauss_6_for_60_epoch5,1,574,NaN,bottle,cat,0,cat10-bottle1.png,
gauss_6_sup_RN50_gauss_6_for_60_epoch5,1,575,NaN,cat,cat,0,cat10-clock1.png,
gauss_6_sup_RN50_gauss_6_for_60_epoch5,1,576,NaN,elephant,cat,0,cat10-elephant3.png,
gauss_6_sup_RN50_gauss_6_for_60_epoch5,1,577,NaN,elephant,cat,0,cat10-keyboard1.png,
gauss_6_sup_RN50_gauss_6_for_60_epoch5,1,578,NaN,bottle,cat,0,cat10-oven2.png,
gauss_6_sup_RN50_gauss_6_for_60_epoch5,1,579,NaN,boat,cat,0,cat2-boat2.png,
gauss_6_sup_RN50_gauss_6_for_60_epoch5,1,580,NaN,cat,cat,0,cat2-bottle3.png,
gauss_6_sup_RN50_gauss_6_for_60_epoch5,1,581,NaN,truck,cat,0,cat2-car3.png,
gauss_6_sup_RN50_gauss_6_for_60_epoch5,1,582,NaN,dog,cat,0,cat2-cat1.png,
gauss_6_sup_RN50_gauss_6_for_60_epoch5,1,583,NaN,elephant,cat,0,cat2-elephant1.png,
gauss_6_sup_RN50_gauss_6_for_60_epoch5,1,584,NaN,knife,cat,0,cat2-knife3.png,
gauss_6_sup_RN50_gauss_6_for_60_epoch5,1,585,NaN,bottle,cat,0,cat2-truck3.png,
gauss_6_sup_RN50_gauss_6_for_60_epoch5,1,586,NaN,bear,cat,0,cat3-bear2.png,
gauss_6_sup_RN50_gauss_6_for_60_epoch5,1,587,NaN,cat,cat,0,cat3-bicycle1.png,
gauss_6_sup_RN50_gauss_6_for_60_epoch5,1,588,NaN,cat,cat,0,cat3-cat1.png,
gauss_6_sup_RN50_gauss_6_for_60_epoch5,1,589,NaN,elephant,cat,0,cat3-elephant2.png,
gauss_6_sup_RN50_gauss_6_for_60_epoch5,1,590,NaN,bottle,cat,0,cat3-oven2.png,
gauss_6_sup_RN50_gauss_6_for_60_epoch5,1,591,NaN,bottle,cat,0,cat3-truck3.png,
gauss_6_sup_RN50_gauss_6_for_60_epoch5,1,592,NaN,keyboard,cat,0,cat4-airplane1.png,
gauss_6_sup_RN50_gauss_6_for_60_epoch5,1,593,NaN,elephant,cat,0,cat4-bird2.png,
gauss_6_sup_RN50_gauss_6_for_60_epoch5,1,594,NaN,bicycle,cat,0,cat4-car2.png,
gauss_6_sup_RN50_gauss_6_for_60_epoch5,1,595,NaN,cat,cat,0,cat4-cat3.png,
gauss_6_sup_RN50_gauss_6_for_60_epoch5,1,596,NaN,chair,cat,0,cat4-chair2.png,
gauss_6_sup_RN50_gauss_6_for_60_epoch5,1,597,NaN,bottle,cat,0,cat4-clock2.png,
gauss_6_sup_RN50_gauss_6_for_60_epoch5,1,598,NaN,dog,cat,0,cat4-dog3.png,
gauss_6_sup_RN50_gauss_6_for_60_epoch5,1,599,NaN,clock,cat,0,cat4-keyboard2.png,
gauss_6_sup_RN50_gauss_6_for_60_epoch5,1,600,NaN,truck,cat,0,cat4-knife1.png,
gauss_6_sup_RN50_gauss_6_for_60_epoch5,1,601,NaN,elephant,cat,0,cat4-oven1.png,
gauss_6_sup_RN50_gauss_6_for_60_epoch5,1,602,NaN,bottle,cat,0,cat4-truck3.png,
gauss_6_sup_RN50_gauss_6_for_60_epoch5,1,603,NaN,airplane,cat,0,cat5-airplane2.png,
gauss_6_sup_RN50_gauss_6_for_60_epoch5,1,604,NaN,elephant,cat,0,cat5-bear2.png,
gauss_6_sup_RN50_gauss_6_for_60_epoch5,1,605,NaN,cat,cat,0,cat5-bicycle3.png,
gauss_6_sup_RN50_gauss_6_for_60_epoch5,1,606,NaN,cat,cat,0,cat5-boat1.png,
gauss_6_sup_RN50_gauss_6_for_60_epoch5,1,607,NaN,bottle,cat,0,cat5-bottle1.png,
gauss_6_sup_RN50_gauss_6_for_60_epoch5,1,608,NaN,airplane,cat,0,cat5-car2.png,
gauss_6_sup_RN50_gauss_6_for_60_epoch5,1,609,NaN,bottle,cat,0,cat5-chair3.png,
gauss_6_sup_RN50_gauss_6_for_60_epoch5,1,610,NaN,cat,cat,0,cat5-dog3.png,
gauss_6_sup_RN50_gauss_6_for_60_epoch5,1,611,NaN,elephant,cat,0,cat5-elephant2.png,
gauss_6_sup_RN50_gauss_6_for_60_epoch5,1,612,NaN,elephant,cat,0,cat5-keyboard3.png,
gauss_6_sup_RN50_gauss_6_for_60_epoch5,1,613,NaN,knife,cat,0,cat5-knife2.png,
gauss_6_sup_RN50_gauss_6_for_60_epoch5,1,614,NaN,elephant,cat,0,cat6-bear1.png,
gauss_6_sup_RN50_gauss_6_for_60_epoch5,1,615,NaN,bottle,cat,0,cat6-chair3.png,
gauss_6_sup_RN50_gauss_6_for_60_epoch5,1,616,NaN,cat,cat,0,cat6-clock3.png,
gauss_6_sup_RN50_gauss_6_for_60_epoch5,1,617,NaN,elephant,cat,0,cat6-keyboard3.png,
gauss_6_sup_RN50_gauss_6_for_60_epoch5,1,618,NaN,airplane,cat,0,cat6-oven1.png,
gauss_6_sup_RN50_gauss_6_for_60_epoch5,1,619,NaN,airplane,cat,0,cat7-airplane2.png,
gauss_6_sup_RN50_gauss_6_for_60_epoch5,1,620,NaN,bottle,cat,0,cat7-boat3.png,
gauss_6_sup_RN50_gauss_6_for_60_epoch5,1,621,NaN,bottle,cat,0,cat7-bottle1.png,
gauss_6_sup_RN50_gauss_6_for_60_epoch5,1,622,NaN,cat,cat,0,cat7-clock3.png,
gauss_6_sup_RN50_gauss_6_for_60_epoch5,1,623,NaN,cat,cat,0,cat7-dog3.png,
gauss_6_sup_RN50_gauss_6_for_60_epoch5,1,624,NaN,keyboard,cat,0,cat7-elephant1.png,
gauss_6_sup_RN50_gauss_6_for_60_epoch5,1,625,NaN,oven,cat,0,cat7-knife2.png,
gauss_6_sup_RN50_gauss_6_for_60_epoch5,1,626,NaN,truck,cat,0,cat7-truck2.png,
gauss_6_sup_RN50_gauss_6_for_60_epoch5,1,627,NaN,bear,cat,0,cat8-bear1.png,
gauss_6_sup_RN50_gauss_6_for_60_epoch5,1,628,NaN,oven,cat,0,cat8-bicycle3.png,
gauss_6_sup_RN50_gauss_6_for_60_epoch5,1,629,NaN,elephant,cat,0,cat8-bird2.png,
gauss_6_sup_RN50_gauss_6_for_60_epoch5,1,630,NaN,bottle,cat,0,cat8-car2.png,
gauss_6_sup_RN50_gauss_6_for_60_epoch5,1,631,NaN,bicycle,cat,0,cat9-bicycle1.png,
gauss_6_sup_RN50_gauss_6_for_60_epoch5,1,632,NaN,elephant,cat,0,cat9-bird3.png,
gauss_6_sup_RN50_gauss_6_for_60_epoch5,1,633,NaN,boat,cat,0,cat9-boat2.png,
gauss_6_sup_RN50_gauss_6_for_60_epoch5,1,634,NaN,bottle,cat,0,cat9-bottle2.png,
gauss_6_sup_RN50_gauss_6_for_60_epoch5,1,635,NaN,cat,cat,0,cat9-cat3.png,
gauss_6_sup_RN50_gauss_6_for_60_epoch5,1,636,NaN,chair,cat,0,cat9-chair2.png,
gauss_6_sup_RN50_gauss_6_for_60_epoch5,1,637,NaN,bottle,cat,0,cat9-clock2.png,
gauss_6_sup_RN50_gauss_6_for_60_epoch5,1,638,NaN,elephant,cat,0,cat9-dog2.png,
gauss_6_sup_RN50_gauss_6_for_60_epoch5,1,639,NaN,truck,cat,0,cat9-knife2.png,
gauss_6_sup_RN50_gauss_6_for_60_epoch5,1,640,NaN,truck,cat,0,cat9-truck1.png,
gauss_6_sup_RN50_gauss_6_for_60_epoch5,1,641,NaN,bottle,chair,0,chair1-airplane2.png,
gauss_6_sup_RN50_gauss_6_for_60_epoch5,1,642,NaN,elephant,chair,0,chair1-bear1.png,
gauss_6_sup_RN50_gauss_6_for_60_epoch5,1,643,NaN,cat,chair,0,chair1-cat3.png,
gauss_6_sup_RN50_gauss_6_for_60_epoch5,1,644,NaN,chair,chair,0,chair1-chair1.png,
gauss_6_sup_RN50_gauss_6_for_60_epoch5,1,645,NaN,elephant,chair,0,chair1-clock2.png,
gauss_6_sup_RN50_gauss_6_for_60_epoch5,1,646,NaN,cat,chair,0,chair1-dog1.png,
gauss_6_sup_RN50_gauss_6_for_60_epoch5,1,647,NaN,elephant,chair,0,chair1-elephant1.png,
gauss_6_sup_RN50_gauss_6_for_60_epoch5,1,648,NaN,knife,chair,0,chair1-oven3.png,
gauss_6_sup_RN50_gauss_6_for_60_epoch5,1,649,NaN,bottle,chair,0,chair1-truck3.png,
gauss_6_sup_RN50_gauss_6_for_60_epoch5,1,650,NaN,airplane,chair,0,chair10-airplane2.png,
gauss_6_sup_RN50_gauss_6_for_60_epoch5,1,651,NaN,bicycle,chair,0,chair10-bicycle1.png,
gauss_6_sup_RN50_gauss_6_for_60_epoch5,1,652,NaN,knife,chair,0,chair10-bird3.png,
gauss_6_sup_RN50_gauss_6_for_60_epoch5,1,653,NaN,chair,chair,0,chair10-bottle3.png,
gauss_6_sup_RN50_gauss_6_for_60_epoch5,1,654,NaN,airplane,chair,0,chair10-car2.png,
gauss_6_sup_RN50_gauss_6_for_60_epoch5,1,655,NaN,dog,chair,0,chair10-cat1.png,
gauss_6_sup_RN50_gauss_6_for_60_epoch5,1,656,NaN,knife,chair,0,chair10-clock1.png,
gauss_6_sup_RN50_gauss_6_for_60_epoch5,1,657,NaN,elephant,chair,0,chair10-dog1.png,
gauss_6_sup_RN50_gauss_6_for_60_epoch5,1,658,NaN,oven,chair,0,chair10-oven1.png,
gauss_6_sup_RN50_gauss_6_for_60_epoch5,1,659,NaN,elephant,chair,0,chair2-bear2.png,
gauss_6_sup_RN50_gauss_6_for_60_epoch5,1,660,NaN,bottle,chair,0,chair2-boat1.png,
gauss_6_sup_RN50_gauss_6_for_60_epoch5,1,661,NaN,bottle,chair,0,chair2-keyboard2.png,
gauss_6_sup_RN50_gauss_6_for_60_epoch5,1,662,NaN,knife,chair,0,chair2-knife1.png,
gauss_6_sup_RN50_gauss_6_for_60_epoch5,1,663,NaN,airplane,chair,0,chair3-airplane2.png,
gauss_6_sup_RN50_gauss_6_for_60_epoch5,1,664,NaN,chair,chair,0,chair3-bicycle3.png,
gauss_6_sup_RN50_gauss_6_for_60_epoch5,1,665,NaN,chair,chair,0,chair3-bottle3.png,
gauss_6_sup_RN50_gauss_6_for_60_epoch5,1,666,NaN,truck,chair,0,chair3-car3.png,
gauss_6_sup_RN50_gauss_6_for_60_epoch5,1,667,NaN,elephant,chair,0,chair3-dog2.png,
gauss_6_sup_RN50_gauss_6_for_60_epoch5,1,668,NaN,chair,chair,0,chair3-knife1.png,
gauss_6_sup_RN50_gauss_6_for_60_epoch5,1,669,NaN,elephant,chair,0,chair4-bear2.png,
gauss_6_sup_RN50_gauss_6_for_60_epoch5,1,670,NaN,cat,chair,0,chair4-cat2.png,
gauss_6_sup_RN50_gauss_6_for_60_epoch5,1,671,NaN,bottle,chair,0,chair4-chair3.png,
gauss_6_sup_RN50_gauss_6_for_60_epoch5,1,672,NaN,bottle,chair,0,chair4-keyboard2.png,
gauss_6_sup_RN50_gauss_6_for_60_epoch5,1,673,NaN,chair,chair,0,chair4-oven2.png,
gauss_6_sup_RN50_gauss_6_for_60_epoch5,1,674,NaN,truck,chair,0,chair4-truck2.png,
gauss_6_sup_RN50_gauss_6_for_60_epoch5,1,675,NaN,bicycle,chair,0,chair5-bicycle1.png,
gauss_6_sup_RN50_gauss_6_for_60_epoch5,1,676,NaN,cat,chair,0,chair5-bird1.png,
gauss_6_sup_RN50_gauss_6_for_60_epoch5,1,677,NaN,clock,chair,0,chair5-boat3.png,
gauss_6_sup_RN50_gauss_6_for_60_epoch5,1,678,NaN,bird,chair,0,chair5-bottle3.png,
gauss_6_sup_RN50_gauss_6_for_60_epoch5,1,679,NaN,bicycle,chair,0,chair5-car1.png,
gauss_6_sup_RN50_gauss_6_for_60_epoch5,1,680,NaN,cat,chair,0,chair5-cat3.png,
gauss_6_sup_RN50_gauss_6_for_60_epoch5,1,681,NaN,dog,chair,0,chair5-clock2.png,
gauss_6_sup_RN50_gauss_6_for_60_epoch5,1,682,NaN,keyboard,chair,0,chair5-keyboard2.png,
gauss_6_sup_RN50_gauss_6_for_60_epoch5,1,683,NaN,knife,chair,0,chair5-knife3.png,
gauss_6_sup_RN50_gauss_6_for_60_epoch5,1,684,NaN,chair,chair,0,chair5-oven2.png,
gauss_6_sup_RN50_gauss_6_for_60_epoch5,1,685,NaN,bottle,chair,0,chair5-truck3.png,
gauss_6_sup_RN50_gauss_6_for_60_epoch5,1,686,NaN,elephant,chair,0,chair6-bird2.png,
gauss_6_sup_RN50_gauss_6_for_60_epoch5,1,687,NaN,cat,chair,0,chair6-dog1.png,
gauss_6_sup_RN50_gauss_6_for_60_epoch5,1,688,NaN,elephant,chair,0,chair6-elephant2.png,
gauss_6_sup_RN50_gauss_6_for_60_epoch5,1,689,NaN,truck,chair,0,chair6-truck2.png,
gauss_6_sup_RN50_gauss_6_for_60_epoch5,1,690,NaN,airplane,chair,0,chair7-airplane1.png,
gauss_6_sup_RN50_gauss_6_for_60_epoch5,1,691,NaN,bottle,chair,0,chair7-bird1.png,
gauss_6_sup_RN50_gauss_6_for_60_epoch5,1,692,NaN,bottle,chair,0,chair7-boat3.png,
gauss_6_sup_RN50_gauss_6_for_60_epoch5,1,693,NaN,chair,chair,0,chair7-bottle1.png,
gauss_6_sup_RN50_gauss_6_for_60_epoch5,1,694,NaN,airplane,chair,0,chair7-car2.png,
gauss_6_sup_RN50_gauss_6_for_60_epoch5,1,695,NaN,cat,chair,0,chair7-cat1.png,
gauss_6_sup_RN50_gauss_6_for_60_epoch5,1,696,NaN,truck,chair,0,chair7-chair1.png,
gauss_6_sup_RN50_gauss_6_for_60_epoch5,1,697,NaN,cat,chair,0,chair7-clock3.png,
gauss_6_sup_RN50_gauss_6_for_60_epoch5,1,698,NaN,elephant,chair,0,chair7-elephant1.png,
gauss_6_sup_RN50_gauss_6_for_60_epoch5,1,699,NaN,elephant,chair,0,chair7-knife2.png,
gauss_6_sup_RN50_gauss_6_for_60_epoch5,1,700,NaN,bottle,chair,0,chair7-truck3.png,
gauss_6_sup_RN50_gauss_6_for_60_epoch5,1,701,NaN,knife,chair,0,chair8-airplane1.png,
gauss_6_sup_RN50_gauss_6_for_60_epoch5,1,702,NaN,elephant,chair,0,chair8-bear1.png,
gauss_6_sup_RN50_gauss_6_for_60_epoch5,1,703,NaN,chair,chair,0,chair8-bicycle3.png,
gauss_6_sup_RN50_gauss_6_for_60_epoch5,1,704,NaN,bicycle,chair,0,chair8-boat1.png,
gauss_6_sup_RN50_gauss_6_for_60_epoch5,1,705,NaN,bottle,chair,0,chair8-car1.png,
gauss_6_sup_RN50_gauss_6_for_60_epoch5,1,706,NaN,bottle,chair,0,chair8-chair3.png,
gauss_6_sup_RN50_gauss_6_for_60_epoch5,1,707,NaN,chair,chair,0,chair8-clock3.png,
gauss_6_sup_RN50_gauss_6_for_60_epoch5,1,708,NaN,clock,chair,0,chair8-elephant1.png,
gauss_6_sup_RN50_gauss_6_for_60_epoch5,1,709,NaN,bottle,chair,0,chair8-keyboard3.png,
gauss_6_sup_RN50_gauss_6_for_60_epoch5,1,710,NaN,oven,chair,0,chair8-knife2.png,
gauss_6_sup_RN50_gauss_6_for_60_epoch5,1,711,NaN,oven,chair,0,chair8-oven1.png,
gauss_6_sup_RN50_gauss_6_for_60_epoch5,1,712,NaN,elephant,chair,0,chair9-bear1.png,
gauss_6_sup_RN50_gauss_6_for_60_epoch5,1,713,NaN,chair,chair,0,chair9-bicycle3.png,
gauss_6_sup_RN50_gauss_6_for_60_epoch5,1,714,NaN,clock,chair,0,chair9-bird3.png,
gauss_6_sup_RN50_gauss_6_for_60_epoch5,1,715,NaN,oven,chair,0,chair9-boat2.png,
gauss_6_sup_RN50_gauss_6_for_60_epoch5,1,716,NaN,cat,chair,0,chair9-bottle3.png,
gauss_6_sup_RN50_gauss_6_for_60_epoch5,1,717,NaN,bottle,chair,0,chair9-chair3.png,
gauss_6_sup_RN50_gauss_6_for_60_epoch5,1,718,NaN,cat,chair,0,chair9-dog2.png,
gauss_6_sup_RN50_gauss_6_for_60_epoch5,1,719,NaN,bird,chair,0,chair9-elephant1.png,
gauss_6_sup_RN50_gauss_6_for_60_epoch5,1,720,NaN,keyboard,chair,0,chair9-keyboard2.png,
gauss_6_sup_RN50_gauss_6_for_60_epoch5,1,721,NaN,elephant,clock,0,clock1-bear1.png,
gauss_6_sup_RN50_gauss_6_for_60_epoch5,1,722,NaN,airplane,clock,0,clock1-boat3.png,
gauss_6_sup_RN50_gauss_6_for_60_epoch5,1,723,NaN,boat,clock,0,clock1-car1.png,
gauss_6_sup_RN50_gauss_6_for_60_epoch5,1,724,NaN,keyboard,clock,0,clock1-clock2.png,
gauss_6_sup_RN50_gauss_6_for_60_epoch5,1,725,NaN,cat,clock,0,clock1-dog2.png,
gauss_6_sup_RN50_gauss_6_for_60_epoch5,1,726,NaN,elephant,clock,0,clock1-elephant2.png,
gauss_6_sup_RN50_gauss_6_for_60_epoch5,1,727,NaN,bottle,clock,0,clock1-truck3.png,
gauss_6_sup_RN50_gauss_6_for_60_epoch5,1,728,NaN,bicycle,clock,0,clock10-airplane1.png,
gauss_6_sup_RN50_gauss_6_for_60_epoch5,1,729,NaN,bottle,clock,0,clock10-bird3.png,
gauss_6_sup_RN50_gauss_6_for_60_epoch5,1,730,NaN,boat,clock,0,clock10-boat2.png,
gauss_6_sup_RN50_gauss_6_for_60_epoch5,1,731,NaN,bicycle,clock,0,clock10-bottle1.png,
gauss_6_sup_RN50_gauss_6_for_60_epoch5,1,732,NaN,dog,clock,0,clock10-cat1.png,
gauss_6_sup_RN50_gauss_6_for_60_epoch5,1,733,NaN,bicycle,clock,0,clock10-clock3.png,
gauss_6_sup_RN50_gauss_6_for_60_epoch5,1,734,NaN,cat,clock,0,clock10-dog3.png,
gauss_6_sup_RN50_gauss_6_for_60_epoch5,1,735,NaN,bottle,clock,0,clock10-knife3.png,
gauss_6_sup_RN50_gauss_6_for_60_epoch5,1,736,NaN,bottle,clock,0,clock10-oven2.png,
gauss_6_sup_RN50_gauss_6_for_60_epoch5,1,737,NaN,car,clock,0,clock10-truck2.png,
gauss_6_sup_RN50_gauss_6_for_60_epoch5,1,738,NaN,clock,clock,0,clock2-bear2.png,
gauss_6_sup_RN50_gauss_6_for_60_epoch5,1,739,NaN,clock,clock,0,clock2-bicycle1.png,
gauss_6_sup_RN50_gauss_6_for_60_epoch5,1,740,NaN,clock,clock,0,clock2-bottle3.png,
gauss_6_sup_RN50_gauss_6_for_60_epoch5,1,741,NaN,clock,clock,0,clock2-clock3.png,
gauss_6_sup_RN50_gauss_6_for_60_epoch5,1,742,NaN,clock,clock,0,clock2-dog1.png,
gauss_6_sup_RN50_gauss_6_for_60_epoch5,1,743,NaN,elephant,clock,0,clock2-elephant2.png,
gauss_6_sup_RN50_gauss_6_for_60_epoch5,1,744,NaN,clock,clock,0,clock2-knife1.png,
gauss_6_sup_RN50_gauss_6_for_60_epoch5,1,745,NaN,elephant,clock,0,clock3-bear3.png,
gauss_6_sup_RN50_gauss_6_for_60_epoch5,1,746,NaN,clock,clock,0,clock3-bicycle2.png,
gauss_6_sup_RN50_gauss_6_for_60_epoch5,1,747,NaN,clock,clock,0,clock3-bird1.png,
gauss_6_sup_RN50_gauss_6_for_60_epoch5,1,748,NaN,bicycle,clock,0,clock3-car2.png,
gauss_6_sup_RN50_gauss_6_for_60_epoch5,1,749,NaN,clock,clock,0,clock3-cat1.png,
gauss_6_sup_RN50_gauss_6_for_60_epoch5,1,750,NaN,clock,clock,0,clock3-dog2.png,
gauss_6_sup_RN50_gauss_6_for_60_epoch5,1,751,NaN,clock,clock,0,clock3-elephant3.png,
gauss_6_sup_RN50_gauss_6_for_60_epoch5,1,752,NaN,clock,clock,0,clock3-keyboard3.png,
gauss_6_sup_RN50_gauss_6_for_60_epoch5,1,753,NaN,clock,clock,0,clock4-airplane1.png,
gauss_6_sup_RN50_gauss_6_for_60_epoch5,1,754,NaN,clock,clock,0,clock4-bird3.png,
gauss_6_sup_RN50_gauss_6_for_60_epoch5,1,755,NaN,bottle,clock,0,clock4-boat3.png,
gauss_6_sup_RN50_gauss_6_for_60_epoch5,1,756,NaN,clock,clock,0,clock4-bottle3.png,
gauss_6_sup_RN50_gauss_6_for_60_epoch5,1,757,NaN,car,clock,0,clock4-car2.png,
gauss_6_sup_RN50_gauss_6_for_60_epoch5,1,758,NaN,car,clock,0,clock4-chair1.png,
gauss_6_sup_RN50_gauss_6_for_60_epoch5,1,759,NaN,elephant,clock,0,clock4-elephant2.png,
gauss_6_sup_RN50_gauss_6_for_60_epoch5,1,760,NaN,clock,clock,0,clock4-knife1.png,
gauss_6_sup_RN50_gauss_6_for_60_epoch5,1,761,NaN,clock,clock,0,clock4-oven1.png,
gauss_6_sup_RN50_gauss_6_for_60_epoch5,1,762,NaN,clock,clock,0,clock5-airplane1.png,
gauss_6_sup_RN50_gauss_6_for_60_epoch5,1,763,NaN,clock,clock,0,clock5-bicycle1.png,
gauss_6_sup_RN50_gauss_6_for_60_epoch5,1,764,NaN,bottle,clock,0,clock5-chair3.png,
gauss_6_sup_RN50_gauss_6_for_60_epoch5,1,765,NaN,clock,clock,0,clock5-clock2.png,
gauss_6_sup_RN50_gauss_6_for_60_epoch5,1,766,NaN,elephant,clock,0,clock5-elephant2.png,
gauss_6_sup_RN50_gauss_6_for_60_epoch5,1,767,NaN,clock,clock,0,clock5-keyboard1.png,
gauss_6_sup_RN50_gauss_6_for_60_epoch5,1,768,NaN,clock,clock,0,clock5-oven1.png,
gauss_6_sup_RN50_gauss_6_for_60_epoch5,1,769,NaN,clock,clock,0,clock6-bicycle1.png,
gauss_6_sup_RN50_gauss_6_for_60_epoch5,1,770,NaN,clock,clock,0,clock6-bird3.png,
gauss_6_sup_RN50_gauss_6_for_60_epoch5,1,771,NaN,clock,clock,0,clock6-bottle1.png,
gauss_6_sup_RN50_gauss_6_for_60_epoch5,1,772,NaN,car,clock,0,clock6-car2.png,
gauss_6_sup_RN50_gauss_6_for_60_epoch5,1,773,NaN,bottle,clock,0,clock6-chair3.png,
gauss_6_sup_RN50_gauss_6_for_60_epoch5,1,774,NaN,clock,clock,0,clock6-clock2.png,
gauss_6_sup_RN50_gauss_6_for_60_epoch5,1,775,NaN,elephant,clock,0,clock6-knife2.png,
gauss_6_sup_RN50_gauss_6_for_60_epoch5,1,776,NaN,bottle,clock,0,clock6-oven1.png,
gauss_6_sup_RN50_gauss_6_for_60_epoch5,1,777,NaN,bottle,clock,0,clock6-truck3.png,
gauss_6_sup_RN50_gauss_6_for_60_epoch5,1,778,NaN,bottle,clock,0,clock7-bear2.png,
gauss_6_sup_RN50_gauss_6_for_60_epoch5,1,779,NaN,bicycle,clock,0,clock7-bicycle1.png,
gauss_6_sup_RN50_gauss_6_for_60_epoch5,1,780,NaN,bottle,clock,0,clock7-boat3.png,
gauss_6_sup_RN50_gauss_6_for_60_epoch5,1,781,NaN,bicycle,clock,0,clock7-bottle2.png,
gauss_6_sup_RN50_gauss_6_for_60_epoch5,1,782,NaN,clock,clock,0,clock7-car1.png,
gauss_6_sup_RN50_gauss_6_for_60_epoch5,1,783,NaN,cat,clock,0,clock7-cat2.png,
gauss_6_sup_RN50_gauss_6_for_60_epoch5,1,784,NaN,clock,clock,0,clock7-dog2.png,
gauss_6_sup_RN50_gauss_6_for_60_epoch5,1,785,NaN,clock,clock,0,clock7-keyboard2.png,
gauss_6_sup_RN50_gauss_6_for_60_epoch5,1,786,NaN,bottle,clock,0,clock7-truck3.png,
gauss_6_sup_RN50_gauss_6_for_60_epoch5,1,787,NaN,clock,clock,0,clock8-airplane2.png,
gauss_6_sup_RN50_gauss_6_for_60_epoch5,1,788,NaN,clock,clock,0,clock8-bear2.png,
gauss_6_sup_RN50_gauss_6_for_60_epoch5,1,789,NaN,clock,clock,0,clock8-boat1.png,
gauss_6_sup_RN50_gauss_6_for_60_epoch5,1,790,NaN,elephant,clock,0,clock8-cat1.png,
gauss_6_sup_RN50_gauss_6_for_60_epoch5,1,791,NaN,clock,clock,0,clock8-chair2.png,
gauss_6_sup_RN50_gauss_6_for_60_epoch5,1,792,NaN,clock,clock,0,clock8-keyboard1.png,
gauss_6_sup_RN50_gauss_6_for_60_epoch5,1,793,NaN,clock,clock,0,clock8-knife1.png,
gauss_6_sup_RN50_gauss_6_for_60_epoch5,1,794,NaN,clock,clock,0,clock8-oven3.png,
gauss_6_sup_RN50_gauss_6_for_60_epoch5,1,795,NaN,truck,clock,0,clock8-truck2.png,
gauss_6_sup_RN50_gauss_6_for_60_epoch5,1,796,NaN,clock,clock,0,clock9-airplane1.png,
gauss_6_sup_RN50_gauss_6_for_60_epoch5,1,797,NaN,clock,clock,0,clock9-bird2.png,
gauss_6_sup_RN50_gauss_6_for_60_epoch5,1,798,NaN,elephant,clock,0,clock9-cat1.png,
gauss_6_sup_RN50_gauss_6_for_60_epoch5,1,799,NaN,bottle,clock,0,clock9-chair3.png,
gauss_6_sup_RN50_gauss_6_for_60_epoch5,1,800,NaN,bottle,clock,0,clock9-keyboard2.png,
gauss_6_sup_RN50_gauss_6_for_60_epoch5,1,801,NaN,airplane,dog,0,dog1-airplane3.png,
gauss_6_sup_RN50_gauss_6_for_60_epoch5,1,802,NaN,elephant,dog,0,dog1-bear1.png,
gauss_6_sup_RN50_gauss_6_for_60_epoch5,1,803,NaN,bear,dog,0,dog1-bird1.png,
gauss_6_sup_RN50_gauss_6_for_60_epoch5,1,804,NaN,bottle,dog,0,dog1-boat3.png,
gauss_6_sup_RN50_gauss_6_for_60_epoch5,1,805,NaN,airplane,dog,0,dog1-car2.png,
gauss_6_sup_RN50_gauss_6_for_60_epoch5,1,806,NaN,bear,dog,0,dog1-cat3.png,
gauss_6_sup_RN50_gauss_6_for_60_epoch5,1,807,NaN,bottle,dog,0,dog1-chair1.png,
gauss_6_sup_RN50_gauss_6_for_60_epoch5,1,808,NaN,bear,dog,0,dog1-dog2.png,
gauss_6_sup_RN50_gauss_6_for_60_epoch5,1,809,NaN,knife,dog,0,dog1-knife3.png,
gauss_6_sup_RN50_gauss_6_for_60_epoch5,1,810,NaN,airplane,dog,0,dog10-airplane1.png,
gauss_6_sup_RN50_gauss_6_for_60_epoch5,1,811,NaN,bicycle,dog,0,dog10-bicycle1.png,
gauss_6_sup_RN50_gauss_6_for_60_epoch5,1,812,NaN,bottle,dog,0,dog10-bottle1.png,
gauss_6_sup_RN50_gauss_6_for_60_epoch5,1,813,NaN,bird,dog,0,dog10-car3.png,
gauss_6_sup_RN50_gauss_6_for_60_epoch5,1,814,NaN,bird,dog,0,dog10-clock1.png,
gauss_6_sup_RN50_gauss_6_for_60_epoch5,1,815,NaN,bear,dog,0,dog10-dog1.png,
gauss_6_sup_RN50_gauss_6_for_60_epoch5,1,816,NaN,elephant,dog,0,dog10-elephant1.png,
gauss_6_sup_RN50_gauss_6_for_60_epoch5,1,817,NaN,keyboard,dog,0,dog10-keyboard2.png,
gauss_6_sup_RN50_gauss_6_for_60_epoch5,1,818,NaN,bottle,dog,0,dog10-oven2.png,
gauss_6_sup_RN50_gauss_6_for_60_epoch5,1,819,NaN,truck,dog,0,dog10-truck2.png,
gauss_6_sup_RN50_gauss_6_for_60_epoch5,1,820,NaN,airplane,dog,0,dog2-airplane2.png,
gauss_6_sup_RN50_gauss_6_for_60_epoch5,1,821,NaN,bird,dog,0,dog2-bicycle2.png,
gauss_6_sup_RN50_gauss_6_for_60_epoch5,1,822,NaN,bottle,dog,0,dog2-bottle2.png,
gauss_6_sup_RN50_gauss_6_for_60_epoch5,1,823,NaN,dog,dog,0,dog2-cat1.png,
gauss_6_sup_RN50_gauss_6_for_60_epoch5,1,824,NaN,dog,dog,0,dog2-dog3.png,
gauss_6_sup_RN50_gauss_6_for_60_epoch5,1,825,NaN,bottle,dog,0,dog2-knife3.png,
gauss_6_sup_RN50_gauss_6_for_60_epoch5,1,826,NaN,elephant,dog,0,dog3-bear3.png,
gauss_6_sup_RN50_gauss_6_for_60_epoch5,1,827,NaN,dog,dog,0,dog3-bird2.png,
gauss_6_sup_RN50_gauss_6_for_60_epoch5,1,828,NaN,airplane,dog,0,dog3-boat1.png,
gauss_6_sup_RN50_gauss_6_for_60_epoch5,1,829,NaN,bicycle,dog,0,dog3-clock1.png,
gauss_6_sup_RN50_gauss_6_for_60_epoch5,1,830,NaN,bear,dog,0,dog3-dog1.png,
gauss_6_sup_RN50_gauss_6_for_60_epoch5,1,831,NaN,elephant,dog,0,dog3-elephant2.png,
gauss_6_sup_RN50_gauss_6_for_60_epoch5,1,832,NaN,bicycle,dog,0,dog3-keyboard1.png,
gauss_6_sup_RN50_gauss_6_for_60_epoch5,1,833,NaN,knife,dog,0,dog3-knife3.png,
gauss_6_sup_RN50_gauss_6_for_60_epoch5,1,834,NaN,truck,dog,0,dog3-truck2.png,
gauss_6_sup_RN50_gauss_6_for_60_epoch5,1,835,NaN,airplane,dog,0,dog4-airplane3.png,
gauss_6_sup_RN50_gauss_6_for_60_epoch5,1,836,NaN,bicycle,dog,0,dog4-bicycle1.png,
gauss_6_sup_RN50_gauss_6_for_60_epoch5,1,837,NaN,elephant,dog,0,dog4-bird1.png,
gauss_6_sup_RN50_gauss_6_for_60_epoch5,1,838,NaN,bottle,dog,0,dog4-bottle2.png,
gauss_6_sup_RN50_gauss_6_for_60_epoch5,1,839,NaN,cat,dog,0,dog4-cat3.png,
gauss_6_sup_RN50_gauss_6_for_60_epoch5,1,840,NaN,truck,dog,0,dog4-chair1.png,
gauss_6_sup_RN50_gauss_6_for_60_epoch5,1,841,NaN,bird,dog,0,dog4-clock1.png,
gauss_6_sup_RN50_gauss_6_for_60_epoch5,1,842,NaN,elephant,dog,0,dog4-elephant2.png,
gauss_6_sup_RN50_gauss_6_for_60_epoch5,1,843,NaN,clock,dog,0,dog4-keyboard2.png,
gauss_6_sup_RN50_gauss_6_for_60_epoch5,1,844,NaN,airplane,dog,0,dog4-oven1.png,
gauss_6_sup_RN50_gauss_6_for_60_epoch5,1,845,NaN,truck,dog,0,dog4-truck2.png,
gauss_6_sup_RN50_gauss_6_for_60_epoch5,1,846,NaN,elephant,dog,0,dog5-bear3.png,
gauss_6_sup_RN50_gauss_6_for_60_epoch5,1,847,NaN,bottle,dog,0,dog5-boat3.png,
gauss_6_sup_RN50_gauss_6_for_60_epoch5,1,848,NaN,boat,dog,0,dog5-car3.png,
gauss_6_sup_RN50_gauss_6_for_60_epoch5,1,849,NaN,elephant,dog,0,dog5-elephant1.png,
gauss_6_sup_RN50_gauss_6_for_60_epoch5,1,850,NaN,truck,dog,0,dog5-knife2.png,
gauss_6_sup_RN50_gauss_6_for_60_epoch5,1,851,NaN,bottle,dog,0,dog5-oven1.png,
gauss_6_sup_RN50_gauss_6_for_60_epoch5,1,852,NaN,truck,dog,0,dog5-truck2.png,
gauss_6_sup_RN50_gauss_6_for_60_epoch5,1,853,NaN,bicycle,dog,0,dog6-bicycle1.png,
gauss_6_sup_RN50_gauss_6_for_60_epoch5,1,854,NaN,elephant,dog,0,dog6-bird1.png,
gauss_6_sup_RN50_gauss_6_for_60_epoch5,1,855,NaN,dog,dog,0,dog6-cat1.png,
gauss_6_sup_RN50_gauss_6_for_60_epoch5,1,856,NaN,cat,dog,0,dog6-clock1.png,
gauss_6_sup_RN50_gauss_6_for_60_epoch5,1,857,NaN,elephant,dog,0,dog6-elephant2.png,
gauss_6_sup_RN50_gauss_6_for_60_epoch5,1,858,NaN,truck,dog,0,dog6-truck2.png,
gauss_6_sup_RN50_gauss_6_for_60_epoch5,1,859,NaN,bottle,dog,0,dog7-bird3.png,
gauss_6_sup_RN50_gauss_6_for_60_epoch5,1,860,NaN,bicycle,dog,0,dog7-car2.png,
gauss_6_sup_RN50_gauss_6_for_60_epoch5,1,861,NaN,chair,dog,0,dog7-chair2.png,
gauss_6_sup_RN50_gauss_6_for_60_epoch5,1,862,NaN,clock,dog,0,dog7-keyboard3.png,
gauss_6_sup_RN50_gauss_6_for_60_epoch5,1,863,NaN,bottle,dog,0,dog7-knife3.png,
gauss_6_sup_RN50_gauss_6_for_60_epoch5,1,864,NaN,bottle,dog,0,dog7-oven2.png,
gauss_6_sup_RN50_gauss_6_for_60_epoch5,1,865,NaN,elephant,dog,0,dog8-bear3.png,
gauss_6_sup_RN50_gauss_6_for_60_epoch5,1,866,NaN,bottle,dog,0,dog8-boat3.png,
gauss_6_sup_RN50_gauss_6_for_60_epoch5,1,867,NaN,bottle,dog,0,dog8-bottle2.png,
gauss_6_sup_RN50_gauss_6_for_60_epoch5,1,868,NaN,elephant,dog,0,dog8-chair3.png,
gauss_6_sup_RN50_gauss_6_for_60_epoch5,1,869,NaN,elephant,dog,0,dog8-clock2.png,
gauss_6_sup_RN50_gauss_6_for_60_epoch5,1,870,NaN,dog,dog,0,dog8-dog3.png,
gauss_6_sup_RN50_gauss_6_for_60_epoch5,1,871,NaN,clock,dog,0,dog8-keyboard3.png,
gauss_6_sup_RN50_gauss_6_for_60_epoch5,1,872,NaN,bottle,dog,0,dog8-oven3.png,
gauss_6_sup_RN50_gauss_6_for_60_epoch5,1,873,NaN,airplane,dog,0,dog9-airplane3.png,
gauss_6_sup_RN50_gauss_6_for_60_epoch5,1,874,NaN,elephant,dog,0,dog9-bear3.png,
gauss_6_sup_RN50_gauss_6_for_60_epoch5,1,875,NaN,knife,dog,0,dog9-bicycle3.png,
gauss_6_sup_RN50_gauss_6_for_60_epoch5,1,876,NaN,airplane,dog,0,dog9-boat1.png,
gauss_6_sup_RN50_gauss_6_for_60_epoch5,1,877,NaN,bicycle,dog,0,dog9-bottle1.png,
gauss_6_sup_RN50_gauss_6_for_60_epoch5,1,878,NaN,bicycle,dog,0,dog9-car1.png,
gauss_6_sup_RN50_gauss_6_for_60_epoch5,1,879,NaN,dog,dog,0,dog9-cat1.png,
gauss_6_sup_RN50_gauss_6_for_60_epoch5,1,880,NaN,chair,dog,0,dog9-chair2.png,
gauss_6_sup_RN50_gauss_6_for_60_epoch5,1,881,NaN,bottle,elephant,0,elephant1-airplane2.png,
gauss_6_sup_RN50_gauss_6_for_60_epoch5,1,882,NaN,elephant,elephant,0,elephant1-bear2.png,
gauss_6_sup_RN50_gauss_6_for_60_epoch5,1,883,NaN,bottle,elephant,0,elephant1-boat2.png,
gauss_6_sup_RN50_gauss_6_for_60_epoch5,1,884,NaN,elephant,elephant,0,elephant1-bottle1.png,
gauss_6_sup_RN50_gauss_6_for_60_epoch5,1,885,NaN,truck,elephant,0,elephant1-car3.png,
gauss_6_sup_RN50_gauss_6_for_60_epoch5,1,886,NaN,bottle,elephant,0,elephant1-chair1.png,
gauss_6_sup_RN50_gauss_6_for_60_epoch5,1,887,NaN,cat,elephant,0,elephant1-dog2.png,
gauss_6_sup_RN50_gauss_6_for_60_epoch5,1,888,NaN,elephant,elephant,0,elephant1-keyboard3.png,
gauss_6_sup_RN50_gauss_6_for_60_epoch5,1,889,NaN,bottle,elephant,0,elephant1-oven2.png,
gauss_6_sup_RN50_gauss_6_for_60_epoch5,1,890,NaN,elephant,elephant,0,elephant10-bear1.png,
gauss_6_sup_RN50_gauss_6_for_60_epoch5,1,891,NaN,elephant,elephant,0,elephant10-elephant1.png,
gauss_6_sup_RN50_gauss_6_for_60_epoch5,1,892,NaN,elephant,elephant,0,elephant10-keyboard1.png,
gauss_6_sup_RN50_gauss_6_for_60_epoch5,1,893,NaN,elephant,elephant,0,elephant10-knife3.png,
gauss_6_sup_RN50_gauss_6_for_60_epoch5,1,894,NaN,elephant,elephant,0,elephant2-airplane3.png,
gauss_6_sup_RN50_gauss_6_for_60_epoch5,1,895,NaN,elephant,elephant,0,elephant2-bear3.png,
gauss_6_sup_RN50_gauss_6_for_60_epoch5,1,896,NaN,elephant,elephant,0,elephant2-bird1.png,
gauss_6_sup_RN50_gauss_6_for_60_epoch5,1,897,NaN,bottle,elephant,0,elephant2-boat1.png,
gauss_6_sup_RN50_gauss_6_for_60_epoch5,1,898,NaN,cat,elephant,0,elephant2-bottle3.png,
gauss_6_sup_RN50_gauss_6_for_60_epoch5,1,899,NaN,dog,elephant,0,elephant2-cat1.png,
gauss_6_sup_RN50_gauss_6_for_60_epoch5,1,900,NaN,elephant,elephant,0,elephant2-clock1.png,
gauss_6_sup_RN50_gauss_6_for_60_epoch5,1,901,NaN,elephant,elephant,0,elephant2-elephant3.png,
gauss_6_sup_RN50_gauss_6_for_60_epoch5,1,902,NaN,clock,elephant,0,elephant2-keyboard3.png,
gauss_6_sup_RN50_gauss_6_for_60_epoch5,1,903,NaN,truck,elephant,0,elephant2-truck2.png,
gauss_6_sup_RN50_gauss_6_for_60_epoch5,1,904,NaN,cat,elephant,0,elephant3-cat2.png,
gauss_6_sup_RN50_gauss_6_for_60_epoch5,1,905,NaN,bottle,elephant,0,elephant3-chair1.png,
gauss_6_sup_RN50_gauss_6_for_60_epoch5,1,906,NaN,bottle,elephant,0,elephant3-keyboard2.png,
gauss_6_sup_RN50_gauss_6_for_60_epoch5,1,907,NaN,elephant,elephant,0,elephant3-knife1.png,
gauss_6_sup_RN50_gauss_6_for_60_epoch5,1,908,NaN,bottle,elephant,0,elephant3-oven1.png,
gauss_6_sup_RN50_gauss_6_for_60_epoch5,1,909,NaN,truck,elephant,0,elephant3-truck1.png,
gauss_6_sup_RN50_gauss_6_for_60_epoch5,1,910,NaN,bicycle,elephant,0,elephant4-bicycle2.png,
gauss_6_sup_RN50_gauss_6_for_60_epoch5,1,911,NaN,elephant,elephant,0,elephant4-bird1.png,
gauss_6_sup_RN50_gauss_6_for_60_epoch5,1,912,NaN,bottle,elephant,0,elephant4-boat3.png,
gauss_6_sup_RN50_gauss_6_for_60_epoch5,1,913,NaN,truck,elephant,0,elephant4-car3.png,
gauss_6_sup_RN50_gauss_6_for_60_epoch5,1,914,NaN,airplane,elephant,0,elephant4-chair3.png,
gauss_6_sup_RN50_gauss_6_for_60_epoch5,1,915,NaN,elephant,elephant,0,elephant4-clock3.png,
gauss_6_sup_RN50_gauss_6_for_60_epoch5,1,916,NaN,elephant,elephant,0,elephant4-oven1.png,
gauss_6_sup_RN50_gauss_6_for_60_epoch5,1,917,NaN,elephant,elephant,0,elephant5-bear2.png,
gauss_6_sup_RN50_gauss_6_for_60_epoch5,1,918,NaN,knife,elephant,0,elephant5-bicycle3.png,
gauss_6_sup_RN50_gauss_6_for_60_epoch5,1,919,NaN,bottle,elephant,0,elephant5-bottle2.png,
gauss_6_sup_RN50_gauss_6_for_60_epoch5,1,920,NaN,bird,elephant,0,elephant5-car1.png,
gauss_6_sup_RN50_gauss_6_for_60_epoch5,1,921,NaN,elephant,elephant,0,elephant5-chair3.png,
gauss_6_sup_RN50_gauss_6_for_60_epoch5,1,922,NaN,elephant,elephant,0,elephant5-elephant1.png,
gauss_6_sup_RN50_gauss_6_for_60_epoch5,1,923,NaN,truck,elephant,0,elephant5-truck1.png,
gauss_6_sup_RN50_gauss_6_for_60_epoch5,1,924,NaN,elephant,elephant,0,elephant6-bicycle1.png,
gauss_6_sup_RN50_gauss_6_for_60_epoch5,1,925,NaN,elephant,elephant,0,elephant6-bird1.png,
gauss_6_sup_RN50_gauss_6_for_60_epoch5,1,926,NaN,elephant,elephant,0,elephant6-bottle2.png,
gauss_6_sup_RN50_gauss_6_for_60_epoch5,1,927,NaN,elephant,elephant,0,elephant6-car3.png,
gauss_6_sup_RN50_gauss_6_for_60_epoch5,1,928,NaN,cat,elephant,0,elephant6-cat2.png,
gauss_6_sup_RN50_gauss_6_for_60_epoch5,1,929,NaN,elephant,elephant,0,elephant6-dog2.png,
gauss_6_sup_RN50_gauss_6_for_60_epoch5,1,930,NaN,elephant,elephant,0,elephant6-knife2.png,
gauss_6_sup_RN50_gauss_6_for_60_epoch5,1,931,NaN,elephant,elephant,0,elephant6-oven1.png,
gauss_6_sup_RN50_gauss_6_for_60_epoch5,1,932,NaN,bottle,elephant,0,elephant6-truck3.png,
gauss_6_sup_RN50_gauss_6_for_60_epoch5,1,933,NaN,elephant,elephant,0,elephant7-airplane3.png,
gauss_6_sup_RN50_gauss_6_for_60_epoch5,1,934,NaN,elephant,elephant,0,elephant7-bear3.png,
gauss_6_sup_RN50_gauss_6_for_60_epoch5,1,935,NaN,bird,elephant,0,elephant7-bird1.png,
gauss_6_sup_RN50_gauss_6_for_60_epoch5,1,936,NaN,elephant,elephant,0,elephant7-bottle3.png,
gauss_6_sup_RN50_gauss_6_for_60_epoch5,1,937,NaN,bicycle,elephant,0,elephant7-car3.png,
gauss_6_sup_RN50_gauss_6_for_60_epoch5,1,938,NaN,dog,elephant,0,elephant7-cat1.png,
gauss_6_sup_RN50_gauss_6_for_60_epoch5,1,939,NaN,elephant,elephant,0,elephant7-clock2.png,
gauss_6_sup_RN50_gauss_6_for_60_epoch5,1,940,NaN,cat,elephant,0,elephant7-dog1.png,
gauss_6_sup_RN50_gauss_6_for_60_epoch5,1,941,NaN,clock,elephant,0,elephant7-keyboard3.png,
gauss_6_sup_RN50_gauss_6_for_60_epoch5,1,942,NaN,elephant,elephant,0,elephant7-knife2.png,
gauss_6_sup_RN50_gauss_6_for_60_epoch5,1,943,NaN,elephant,elephant,0,elephant8-airplane3.png,
gauss_6_sup_RN50_gauss_6_for_60_epoch5,1,944,NaN,chair,elephant,0,elephant8-bicycle3.png,
gauss_6_sup_RN50_gauss_6_for_60_epoch5,1,945,NaN,elephant,elephant,0,elephant8-bird2.png,
gauss_6_sup_RN50_gauss_6_for_60_epoch5,1,946,NaN,oven,elephant,0,elephant8-boat2.png,
gauss_6_sup_RN50_gauss_6_for_60_epoch5,1,947,NaN,elephant,elephant,0,elephant8-cat1.png,
gauss_6_sup_RN50_gauss_6_for_60_epoch5,1,948,NaN,elephant,elephant,0,elephant8-clock2.png,
gauss_6_sup_RN50_gauss_6_for_60_epoch5,1,949,NaN,cat,elephant,0,elephant8-dog1.png,
gauss_6_sup_RN50_gauss_6_for_60_epoch5,1,950,NaN,elephant,elephant,0,elephant8-elephant1.png,
gauss_6_sup_RN50_gauss_6_for_60_epoch5,1,951,NaN,elephant,elephant,0,elephant8-knife2.png,
gauss_6_sup_RN50_gauss_6_for_60_epoch5,1,952,NaN,elephant,elephant,0,elephant8-oven3.png,
gauss_6_sup_RN50_gauss_6_for_60_epoch5,1,953,NaN,bottle,elephant,0,elephant8-truck3.png,
gauss_6_sup_RN50_gauss_6_for_60_epoch5,1,954,NaN,airplane,elephant,0,elephant9-airplane2.png,
gauss_6_sup_RN50_gauss_6_for_60_epoch5,1,955,NaN,elephant,elephant,0,elephant9-bicycle2.png,
gauss_6_sup_RN50_gauss_6_for_60_epoch5,1,956,NaN,elephant,elephant,0,elephant9-boat3.png,
gauss_6_sup_RN50_gauss_6_for_60_epoch5,1,957,NaN,chair,elephant,0,elephant9-chair2.png,
gauss_6_sup_RN50_gauss_6_for_60_epoch5,1,958,NaN,elephant,elephant,0,elephant9-clock3.png,
gauss_6_sup_RN50_gauss_6_for_60_epoch5,1,959,NaN,cat,elephant,0,elephant9-dog3.png,
gauss_6_sup_RN50_gauss_6_for_60_epoch5,1,960,NaN,elephant,elephant,0,elephant9-elephant3.png,
gauss_6_sup_RN50_gauss_6_for_60_epoch5,1,961,NaN,airplane,keyboard,0,keyboard1-airplane2.png,
gauss_6_sup_RN50_gauss_6_for_60_epoch5,1,962,NaN,elephant,keyboard,0,keyboard1-bear2.png,
gauss_6_sup_RN50_gauss_6_for_60_epoch5,1,963,NaN,elephant,keyboard,0,keyboard1-bird2.png,
gauss_6_sup_RN50_gauss_6_for_60_epoch5,1,964,NaN,truck,keyboard,0,keyboard1-car3.png,
gauss_6_sup_RN50_gauss_6_for_60_epoch5,1,965,NaN,bottle,keyboard,0,keyboard1-chair2.png,
gauss_6_sup_RN50_gauss_6_for_60_epoch5,1,966,NaN,dog,keyboard,0,keyboard1-clock1.png,
gauss_6_sup_RN50_gauss_6_for_60_epoch5,1,967,NaN,cat,keyboard,0,keyboard1-dog3.png,
gauss_6_sup_RN50_gauss_6_for_60_epoch5,1,968,NaN,elephant,keyboard,0,keyboard1-elephant3.png,
gauss_6_sup_RN50_gauss_6_for_60_epoch5,1,969,NaN,airplane,keyboard,0,keyboard10-airplane3.png,
gauss_6_sup_RN50_gauss_6_for_60_epoch5,1,970,NaN,boat,keyboard,0,keyboard10-boat2.png,
gauss_6_sup_RN50_gauss_6_for_60_epoch5,1,971,NaN,boat,keyboard,0,keyboard10-car1.png,
gauss_6_sup_RN50_gauss_6_for_60_epoch5,1,972,NaN,elephant,keyboard,0,keyboard10-keyboard1.png,
gauss_6_sup_RN50_gauss_6_for_60_epoch5,1,973,NaN,knife,keyboard,0,keyboard10-oven3.png,
gauss_6_sup_RN50_gauss_6_for_60_epoch5,1,974,NaN,boat,keyboard,0,keyboard10-truck1.png,
gauss_6_sup_RN50_gauss_6_for_60_epoch5,1,975,NaN,oven,keyboard,0,keyboard2-bicycle3.png,
gauss_6_sup_RN50_gauss_6_for_60_epoch5,1,976,NaN,bottle,keyboard,0,keyboard2-bottle1.png,
gauss_6_sup_RN50_gauss_6_for_60_epoch5,1,977,NaN,oven,keyboard,0,keyboard2-clock1.png,
gauss_6_sup_RN50_gauss_6_for_60_epoch5,1,978,NaN,elephant,keyboard,0,keyboard2-elephant1.png,
gauss_6_sup_RN50_gauss_6_for_60_epoch5,1,979,NaN,knife,keyboard,0,keyboard2-knife1.png,
gauss_6_sup_RN50_gauss_6_for_60_epoch5,1,980,NaN,bird,keyboard,0,keyboard3-bicycle2.png,
gauss_6_sup_RN50_gauss_6_for_60_epoch5,1,981,NaN,bottle,keyboard,0,keyboard3-bird3.png,
gauss_6_sup_RN50_gauss_6_for_60_epoch5,1,982,NaN,airplane,keyboard,0,keyboard3-boat1.png,
gauss_6_sup_RN50_gauss_6_for_60_epoch5,1,983,NaN,airplane,keyboard,0,keyboard3-car2.png,
gauss_6_sup_RN50_gauss_6_for_60_epoch5,1,984,NaN,cat,keyboard,0,keyboard3-cat1.png,
gauss_6_sup_RN50_gauss_6_for_60_epoch5,1,985,NaN,keyboard,keyboard,0,keyboard3-clock3.png,
gauss_6_sup_RN50_gauss_6_for_60_epoch5,1,986,NaN,elephant,keyboard,0,keyboard3-elephant2.png,
gauss_6_sup_RN50_gauss_6_for_60_epoch5,1,987,NaN,elephant,keyboard,0,keyboard4-bird1.png,
gauss_6_sup_RN50_gauss_6_for_60_epoch5,1,988,NaN,bottle,keyboard,0,keyboard4-bottle2.png,
gauss_6_sup_RN50_gauss_6_for_60_epoch5,1,989,NaN,cat,keyboard,0,keyboard4-cat2.png,
gauss_6_sup_RN50_gauss_6_for_60_epoch5,1,990,NaN,airplane,keyboard,0,keyboard4-clock2.png,
gauss_6_sup_RN50_gauss_6_for_60_epoch5,1,991,NaN,elephant,keyboard,0,keyboard4-keyboard2.png,
gauss_6_sup_RN50_gauss_6_for_60_epoch5,1,992,NaN,oven,keyboard,0,keyboard4-knife2.png,
gauss_6_sup_RN50_gauss_6_for_60_epoch5,1,993,NaN,bottle,keyboard,0,keyboard4-oven2.png,
gauss_6_sup_RN50_gauss_6_for_60_epoch5,1,994,NaN,bottle,keyboard,0,keyboard4-truck3.png,
gauss_6_sup_RN50_gauss_6_for_60_epoch5,1,995,NaN,keyboard,keyboard,0,keyboard5-airplane3.png,
gauss_6_sup_RN50_gauss_6_for_60_epoch5,1,996,NaN,elephant,keyboard,0,keyboard5-bear3.png,
gauss_6_sup_RN50_gauss_6_for_60_epoch5,1,997,NaN,bicycle,keyboard,0,keyboard5-bicycle1.png,
gauss_6_sup_RN50_gauss_6_for_60_epoch5,1,998,NaN,keyboard,keyboard,0,keyboard5-bird3.png,
gauss_6_sup_RN50_gauss_6_for_60_epoch5,1,999,NaN,bottle,keyboard,0,keyboard5-bottle1.png,
gauss_6_sup_RN50_gauss_6_for_60_epoch5,1,1000,NaN,cat,keyboard,0,keyboard5-cat1.png,
gauss_6_sup_RN50_gauss_6_for_60_epoch5,1,1001,NaN,cat,keyboard,0,keyboard5-dog3.png,
gauss_6_sup_RN50_gauss_6_for_60_epoch5,1,1002,NaN,keyboard,keyboard,0,keyboard5-keyboard1.png,
gauss_6_sup_RN50_gauss_6_for_60_epoch5,1,1003,NaN,truck,keyboard,0,keyboard5-knife2.png,
gauss_6_sup_RN50_gauss_6_for_60_epoch5,1,1004,NaN,elephant,keyboard,0,keyboard5-oven2.png,
gauss_6_sup_RN50_gauss_6_for_60_epoch5,1,1005,NaN,keyboard,keyboard,0,keyboard6-bear2.png,
gauss_6_sup_RN50_gauss_6_for_60_epoch5,1,1006,NaN,bottle,keyboard,0,keyboard6-bicycle1.png,
gauss_6_sup_RN50_gauss_6_for_60_epoch5,1,1007,NaN,bottle,keyboard,0,keyboard6-boat2.png,
gauss_6_sup_RN50_gauss_6_for_60_epoch5,1,1008,NaN,bottle,keyboard,0,keyboard6-bottle2.png,
gauss_6_sup_RN50_gauss_6_for_60_epoch5,1,1009,NaN,car,keyboard,0,keyboard6-car2.png,
gauss_6_sup_RN50_gauss_6_for_60_epoch5,1,1010,NaN,car,keyboard,0,keyboard6-chair1.png,
gauss_6_sup_RN50_gauss_6_for_60_epoch5,1,1011,NaN,bird,keyboard,0,keyboard6-dog2.png,
gauss_6_sup_RN50_gauss_6_for_60_epoch5,1,1012,NaN,keyboard,keyboard,0,keyboard6-elephant1.png,
gauss_6_sup_RN50_gauss_6_for_60_epoch5,1,1013,NaN,oven,keyboard,0,keyboard6-knife2.png,
gauss_6_sup_RN50_gauss_6_for_60_epoch5,1,1014,NaN,bear,keyboard,0,keyboard7-bear2.png,
gauss_6_sup_RN50_gauss_6_for_60_epoch5,1,1015,NaN,boat,keyboard,0,keyboard7-boat2.png,
gauss_6_sup_RN50_gauss_6_for_60_epoch5,1,1016,NaN,bottle,keyboard,0,keyboard7-bottle1.png,
gauss_6_sup_RN50_gauss_6_for_60_epoch5,1,1017,NaN,boat,keyboard,0,keyboard7-car3.png,
gauss_6_sup_RN50_gauss_6_for_60_epoch5,1,1018,NaN,keyboard,keyboard,0,keyboard7-chair3.png,
gauss_6_sup_RN50_gauss_6_for_60_epoch5,1,1019,NaN,cat,keyboard,0,keyboard7-clock3.png,
gauss_6_sup_RN50_gauss_6_for_60_epoch5,1,1020,NaN,bear,keyboard,0,keyboard7-dog1.png,
gauss_6_sup_RN50_gauss_6_for_60_epoch5,1,1021,NaN,knife,keyboard,0,keyboard7-knife1.png,
gauss_6_sup_RN50_gauss_6_for_60_epoch5,1,1022,NaN,keyboard,keyboard,0,keyboard7-oven2.png,
gauss_6_sup_RN50_gauss_6_for_60_epoch5,1,1023,NaN,truck,keyboard,0,keyboard7-truck2.png,
gauss_6_sup_RN50_gauss_6_for_60_epoch5,1,1024,NaN,airplane,keyboard,0,keyboard8-airplane2.png,
gauss_6_sup_RN50_gauss_6_for_60_epoch5,1,1025,NaN,cat,keyboard,0,keyboard8-cat3.png,
gauss_6_sup_RN50_gauss_6_for_60_epoch5,1,1026,NaN,knife,keyboard,0,keyboard8-chair2.png,
gauss_6_sup_RN50_gauss_6_for_60_epoch5,1,1027,NaN,cat,keyboard,0,keyboard8-dog3.png,
gauss_6_sup_RN50_gauss_6_for_60_epoch5,1,1028,NaN,keyboard,keyboard,0,keyboard8-keyboard2.png,
gauss_6_sup_RN50_gauss_6_for_60_epoch5,1,1029,NaN,keyboard,keyboard,0,keyboard8-oven1.png,
gauss_6_sup_RN50_gauss_6_for_60_epoch5,1,1030,NaN,keyboard,keyboard,0,keyboard8-truck3.png,
gauss_6_sup_RN50_gauss_6_for_60_epoch5,1,1031,NaN,airplane,keyboard,0,keyboard9-airplane3.png,
gauss_6_sup_RN50_gauss_6_for_60_epoch5,1,1032,NaN,bear,keyboard,0,keyboard9-bear2.png,
gauss_6_sup_RN50_gauss_6_for_60_epoch5,1,1033,NaN,bird,keyboard,0,keyboard9-bicycle2.png,
gauss_6_sup_RN50_gauss_6_for_60_epoch5,1,1034,NaN,elephant,keyboard,0,keyboard9-bird1.png,
gauss_6_sup_RN50_gauss_6_for_60_epoch5,1,1035,NaN,boat,keyboard,0,keyboard9-boat2.png,
gauss_6_sup_RN50_gauss_6_for_60_epoch5,1,1036,NaN,cat,keyboard,0,keyboard9-cat1.png,
gauss_6_sup_RN50_gauss_6_for_60_epoch5,1,1037,NaN,bottle,keyboard,0,keyboard9-chair2.png,
gauss_6_sup_RN50_gauss_6_for_60_epoch5,1,1038,NaN,elephant,keyboard,0,keyboard9-elephant2.png,
gauss_6_sup_RN50_gauss_6_for_60_epoch5,1,1039,NaN,elephant,keyboard,0,keyboard9-keyboard2.png,
gauss_6_sup_RN50_gauss_6_for_60_epoch5,1,1040,NaN,bottle,keyboard,0,keyboard9-truck3.png,
gauss_6_sup_RN50_gauss_6_for_60_epoch5,1,1041,NaN,keyboard,knife,0,knife1-airplane1.png,
gauss_6_sup_RN50_gauss_6_for_60_epoch5,1,1042,NaN,bicycle,knife,0,knife1-bird2.png,
gauss_6_sup_RN50_gauss_6_for_60_epoch5,1,1043,NaN,truck,knife,0,knife1-car3.png,
gauss_6_sup_RN50_gauss_6_for_60_epoch5,1,1044,NaN,car,knife,0,knife1-chair1.png,
gauss_6_sup_RN50_gauss_6_for_60_epoch5,1,1045,NaN,cat,knife,0,knife1-clock2.png,
gauss_6_sup_RN50_gauss_6_for_60_epoch5,1,1046,NaN,cat,knife,0,knife1-dog1.png,
gauss_6_sup_RN50_gauss_6_for_60_epoch5,1,1047,NaN,elephant,knife,0,knife1-elephant1.png,
gauss_6_sup_RN50_gauss_6_for_60_epoch5,1,1048,NaN,bird,knife,0,knife1-keyboard3.png,
gauss_6_sup_RN50_gauss_6_for_60_epoch5,1,1049,NaN,airplane,knife,0,knife1-oven1.png,
gauss_6_sup_RN50_gauss_6_for_60_epoch5,1,1050,NaN,car,knife,0,knife1-truck2.png,
gauss_6_sup_RN50_gauss_6_for_60_epoch5,1,1051,NaN,elephant,knife,0,knife10-bear3.png,
gauss_6_sup_RN50_gauss_6_for_60_epoch5,1,1052,NaN,truck,knife,0,knife10-chair1.png,
gauss_6_sup_RN50_gauss_6_for_60_epoch5,1,1053,NaN,cat,knife,0,knife10-dog1.png,
gauss_6_sup_RN50_gauss_6_for_60_epoch5,1,1054,NaN,elephant,knife,0,knife10-elephant3.png,
gauss_6_sup_RN50_gauss_6_for_60_epoch5,1,1055,NaN,airplane,knife,0,knife10-keyboard3.png,
gauss_6_sup_RN50_gauss_6_for_60_epoch5,1,1056,NaN,knife,knife,0,knife10-knife1.png,
gauss_6_sup_RN50_gauss_6_for_60_epoch5,1,1057,NaN,bottle,knife,0,knife10-oven3.png,
gauss_6_sup_RN50_gauss_6_for_60_epoch5,1,1058,NaN,bird,knife,0,knife2-bear2.png,
gauss_6_sup_RN50_gauss_6_for_60_epoch5,1,1059,NaN,oven,knife,0,knife2-bicycle3.png,
gauss_6_sup_RN50_gauss_6_for_60_epoch5,1,1060,NaN,bird,knife,0,knife2-bird1.png,
gauss_6_sup_RN50_gauss_6_for_60_epoch5,1,1061,NaN,bicycle,knife,0,knife2-bottle2.png,
gauss_6_sup_RN50_gauss_6_for_60_epoch5,1,1062,NaN,boat,knife,0,knife2-car3.png,
gauss_6_sup_RN50_gauss_6_for_60_epoch5,1,1063,NaN,cat,knife,0,knife2-cat3.png,
gauss_6_sup_RN50_gauss_6_for_60_epoch5,1,1064,NaN,cat,knife,0,knife2-dog1.png,
gauss_6_sup_RN50_gauss_6_for_60_epoch5,1,1065,NaN,elephant,knife,0,knife2-elephant2.png,
gauss_6_sup_RN50_gauss_6_for_60_epoch5,1,1066,NaN,truck,knife,0,knife2-truck2.png,
gauss_6_sup_RN50_gauss_6_for_60_epoch5,1,1067,NaN,cat,knife,0,knife3-bear2.png,
gauss_6_sup_RN50_gauss_6_for_60_epoch5,1,1068,NaN,cat,knife,0,knife3-cat1.png,
gauss_6_sup_RN50_gauss_6_for_60_epoch5,1,1069,NaN,clock,knife,0,knife3-clock2.png,
gauss_6_sup_RN50_gauss_6_for_60_epoch5,1,1070,NaN,clock,knife,0,knife3-keyboard3.png,
gauss_6_sup_RN50_gauss_6_for_60_epoch5,1,1071,NaN,knife,knife,0,knife3-knife1.png,
gauss_6_sup_RN50_gauss_6_for_60_epoch5,1,1072,NaN,airplane,knife,0,knife4-airplane3.png,
gauss_6_sup_RN50_gauss_6_for_60_epoch5,1,1073,NaN,elephant,knife,0,knife4-bear1.png,
gauss_6_sup_RN50_gauss_6_for_60_epoch5,1,1074,NaN,airplane,knife,0,knife4-boat1.png,
gauss_6_sup_RN50_gauss_6_for_60_epoch5,1,1075,NaN,airplane,knife,0,knife4-car2.png,
gauss_6_sup_RN50_gauss_6_for_60_epoch5,1,1076,NaN,bird,knife,0,knife4-cat2.png,
gauss_6_sup_RN50_gauss_6_for_60_epoch5,1,1077,NaN,cat,knife,0,knife4-clock3.png,
gauss_6_sup_RN50_gauss_6_for_60_epoch5,1,1078,NaN,elephant,knife,0,knife4-keyboard1.png,
gauss_6_sup_RN50_gauss_6_for_60_epoch5,1,1079,NaN,knife,knife,0,knife4-knife2.png,
gauss_6_sup_RN50_gauss_6_for_60_epoch5,1,1080,NaN,oven,knife,0,knife4-oven2.png,
gauss_6_sup_RN50_gauss_6_for_60_epoch5,1,1081,NaN,bird,knife,0,knife5-bicycle2.png,
gauss_6_sup_RN50_gauss_6_for_60_epoch5,1,1082,NaN,bird,knife,0,knife5-cat2.png,
gauss_6_sup_RN50_gauss_6_for_60_epoch5,1,1083,NaN,cat,knife,0,knife5-clock1.png,
gauss_6_sup_RN50_gauss_6_for_60_epoch5,1,1084,NaN,elephant,knife,0,knife5-dog1.png,
gauss_6_sup_RN50_gauss_6_for_60_epoch5,1,1085,NaN,clock,knife,0,knife5-keyboard3.png,
gauss_6_sup_RN50_gauss_6_for_60_epoch5,1,1086,NaN,knife,knife,0,knife5-knife3.png,
gauss_6_sup_RN50_gauss_6_for_60_epoch5,1,1087,NaN,bottle,knife,0,knife5-oven2.png,
gauss_6_sup_RN50_gauss_6_for_60_epoch5,1,1088,NaN,bottle,knife,0,knife5-truck3.png,
gauss_6_sup_RN50_gauss_6_for_60_epoch5,1,1089,NaN,keyboard,knife,0,knife6-airplane1.png,
gauss_6_sup_RN50_gauss_6_for_60_epoch5,1,1090,NaN,bottle,knife,0,knife6-bicycle1.png,
gauss_6_sup_RN50_gauss_6_for_60_epoch5,1,1091,NaN,airplane,knife,0,knife6-bird1.png,
gauss_6_sup_RN50_gauss_6_for_60_epoch5,1,1092,NaN,bottle,knife,0,knife6-boat3.png,
gauss_6_sup_RN50_gauss_6_for_60_epoch5,1,1093,NaN,bottle,knife,0,knife6-bottle3.png,
gauss_6_sup_RN50_gauss_6_for_60_epoch5,1,1094,NaN,bottle,knife,0,knife6-chair3.png,
gauss_6_sup_RN50_gauss_6_for_60_epoch5,1,1095,NaN,bottle,knife,0,knife6-clock2.png,
gauss_6_sup_RN50_gauss_6_for_60_epoch5,1,1096,NaN,elephant,knife,0,knife6-dog2.png,
gauss_6_sup_RN50_gauss_6_for_60_epoch5,1,1097,NaN,knife,knife,0,knife6-knife1.png,
gauss_6_sup_RN50_gauss_6_for_60_epoch5,1,1098,NaN,bottle,knife,0,knife6-oven3.png,
gauss_6_sup_RN50_gauss_6_for_60_epoch5,1,1099,NaN,boat,knife,0,knife6-truck1.png,
gauss_6_sup_RN50_gauss_6_for_60_epoch5,1,1100,NaN,airplane,knife,0,knife7-airplane3.png,
gauss_6_sup_RN50_gauss_6_for_60_epoch5,1,1101,NaN,oven,knife,0,knife7-bird3.png,
gauss_6_sup_RN50_gauss_6_for_60_epoch5,1,1102,NaN,bottle,knife,0,knife7-boat3.png,
gauss_6_sup_RN50_gauss_6_for_60_epoch5,1,1103,NaN,bottle,knife,0,knife7-bottle3.png,
gauss_6_sup_RN50_gauss_6_for_60_epoch5,1,1104,NaN,bicycle,knife,0,knife7-car2.png,
gauss_6_sup_RN50_gauss_6_for_60_epoch5,1,1105,NaN,elephant,knife,0,knife7-chair2.png,
gauss_6_sup_RN50_gauss_6_for_60_epoch5,1,1106,NaN,elephant,knife,0,knife7-elephant2.png,
gauss_6_sup_RN50_gauss_6_for_60_epoch5,1,1107,NaN,bicycle,knife,0,knife8-bicycle1.png,
gauss_6_sup_RN50_gauss_6_for_60_epoch5,1,1108,NaN,boat,knife,0,knife8-boat1.png,
gauss_6_sup_RN50_gauss_6_for_60_epoch5,1,1109,NaN,cat,knife,0,knife8-bottle3.png,
gauss_6_sup_RN50_gauss_6_for_60_epoch5,1,1110,NaN,airplane,knife,0,knife8-car2.png,
gauss_6_sup_RN50_gauss_6_for_60_epoch5,1,1111,NaN,cat,knife,0,knife8-cat2.png,
gauss_6_sup_RN50_gauss_6_for_60_epoch5,1,1112,NaN,airplane,knife,0,knife8-truck3.png,
gauss_6_sup_RN50_gauss_6_for_60_epoch5,1,1113,NaN,airplane,knife,0,knife9-airplane2.png,
gauss_6_sup_RN50_gauss_6_for_60_epoch5,1,1114,NaN,elephant,knife,0,knife9-bear3.png,
gauss_6_sup_RN50_gauss_6_for_60_epoch5,1,1115,NaN,bicycle,knife,0,knife9-bicycle1.png,
gauss_6_sup_RN50_gauss_6_for_60_epoch5,1,1116,NaN,cat,knife,0,knife9-bird1.png,
gauss_6_sup_RN50_gauss_6_for_60_epoch5,1,1117,NaN,bottle,knife,0,knife9-boat1.png,
gauss_6_sup_RN50_gauss_6_for_60_epoch5,1,1118,NaN,bottle,knife,0,knife9-bottle2.png,
gauss_6_sup_RN50_gauss_6_for_60_epoch5,1,1119,NaN,car,knife,0,knife9-chair1.png,
gauss_6_sup_RN50_gauss_6_for_60_epoch5,1,1120,NaN,elephant,knife,0,knife9-elephant2.png,
gauss_6_sup_RN50_gauss_6_for_60_epoch5,1,1121,NaN,bottle,oven,0,oven1-bird3.png,
gauss_6_sup_RN50_gauss_6_for_60_epoch5,1,1122,NaN,bottle,oven,0,oven1-boat3.png,
gauss_6_sup_RN50_gauss_6_for_60_epoch5,1,1123,NaN,oven,oven,0,oven1-cat1.png,
gauss_6_sup_RN50_gauss_6_for_60_epoch5,1,1124,NaN,keyboard,oven,0,oven1-clock3.png,
gauss_6_sup_RN50_gauss_6_for_60_epoch5,1,1125,NaN,oven,oven,0,oven1-dog3.png,
gauss_6_sup_RN50_gauss_6_for_60_epoch5,1,1126,NaN,truck,oven,0,oven10-airplane2.png,
gauss_6_sup_RN50_gauss_6_for_60_epoch5,1,1127,NaN,bear,oven,0,oven10-bear1.png,
gauss_6_sup_RN50_gauss_6_for_60_epoch5,1,1128,NaN,bottle,oven,0,oven10-bicycle1.png,
gauss_6_sup_RN50_gauss_6_for_60_epoch5,1,1129,NaN,oven,oven,0,oven10-boat2.png,
gauss_6_sup_RN50_gauss_6_for_60_epoch5,1,1130,NaN,cat,oven,0,oven10-cat2.png,
gauss_6_sup_RN50_gauss_6_for_60_epoch5,1,1131,NaN,bottle,oven,0,oven10-oven3.png,
gauss_6_sup_RN50_gauss_6_for_60_epoch5,1,1132,NaN,truck,oven,0,oven10-truck2.png,
gauss_6_sup_RN50_gauss_6_for_60_epoch5,1,1133,NaN,elephant,oven,0,oven2-bear3.png,
gauss_6_sup_RN50_gauss_6_for_60_epoch5,1,1134,NaN,bottle,oven,0,oven2-bicycle1.png,
gauss_6_sup_RN50_gauss_6_for_60_epoch5,1,1135,NaN,oven,oven,0,oven2-bird2.png,
gauss_6_sup_RN50_gauss_6_for_60_epoch5,1,1136,NaN,truck,oven,0,oven2-boat3.png,
gauss_6_sup_RN50_gauss_6_for_60_epoch5,1,1137,NaN,bottle,oven,0,oven2-bottle1.png,
gauss_6_sup_RN50_gauss_6_for_60_epoch5,1,1138,NaN,bottle,oven,0,oven2-car1.png,
gauss_6_sup_RN50_gauss_6_for_60_epoch5,1,1139,NaN,chair,oven,0,oven2-chair1.png,
gauss_6_sup_RN50_gauss_6_for_60_epoch5,1,1140,NaN,cat,oven,0,oven2-dog3.png,
gauss_6_sup_RN50_gauss_6_for_60_epoch5,1,1141,NaN,oven,oven,0,oven2-oven3.png,
gauss_6_sup_RN50_gauss_6_for_60_epoch5,1,1142,NaN,bottle,oven,0,oven2-truck3.png,
gauss_6_sup_RN50_gauss_6_for_60_epoch5,1,1143,NaN,oven,oven,0,oven3-airplane1.png,
gauss_6_sup_RN50_gauss_6_for_60_epoch5,1,1144,NaN,elephant,oven,0,oven3-bear2.png,
gauss_6_sup_RN50_gauss_6_for_60_epoch5,1,1145,NaN,bottle,oven,0,oven3-boat3.png,
gauss_6_sup_RN50_gauss_6_for_60_epoch5,1,1146,NaN,oven,oven,0,oven3-bottle3.png,
gauss_6_sup_RN50_gauss_6_for_60_epoch5,1,1147,NaN,oven,oven,0,oven3-car2.png,
gauss_6_sup_RN50_gauss_6_for_60_epoch5,1,1148,NaN,cat,oven,0,oven3-cat2.png,
gauss_6_sup_RN50_gauss_6_for_60_epoch5,1,1149,NaN,oven,oven,0,oven3-clock3.png,
gauss_6_sup_RN50_gauss_6_for_60_epoch5,1,1150,NaN,elephant,oven,0,oven3-elephant3.png,
gauss_6_sup_RN50_gauss_6_for_60_epoch5,1,1151,NaN,oven,oven,0,oven3-knife1.png,
gauss_6_sup_RN50_gauss_6_for_60_epoch5,1,1152,NaN,truck,oven,0,oven3-truck1.png,
gauss_6_sup_RN50_gauss_6_for_60_epoch5,1,1153,NaN,bird,oven,0,oven4-bicycle2.png,
gauss_6_sup_RN50_gauss_6_for_60_epoch5,1,1154,NaN,oven,oven,0,oven4-bottle2.png,
gauss_6_sup_RN50_gauss_6_for_60_epoch5,1,1155,NaN,truck,oven,0,oven4-car1.png,
gauss_6_sup_RN50_gauss_6_for_60_epoch5,1,1156,NaN,chair,oven,0,oven4-chair1.png,
gauss_6_sup_RN50_gauss_6_for_60_epoch5,1,1157,NaN,bottle,oven,0,oven4-clock2.png,
gauss_6_sup_RN50_gauss_6_for_60_epoch5,1,1158,NaN,elephant,oven,0,oven4-dog1.png,
gauss_6_sup_RN50_gauss_6_for_60_epoch5,1,1159,NaN,elephant,oven,0,oven4-elephant3.png,
gauss_6_sup_RN50_gauss_6_for_60_epoch5,1,1160,NaN,bottle,oven,0,oven4-keyboard3.png,
gauss_6_sup_RN50_gauss_6_for_60_epoch5,1,1161,NaN,knife,oven,0,oven4-knife2.png,
gauss_6_sup_RN50_gauss_6_for_60_epoch5,1,1162,NaN,bottle,oven,0,oven4-truck3.png,
gauss_6_sup_RN50_gauss_6_for_60_epoch5,1,1163,NaN,bottle,oven,0,oven5-airplane1.png,
gauss_6_sup_RN50_gauss_6_for_60_epoch5,1,1164,NaN,bicycle,oven,0,oven5-bicycle1.png,
gauss_6_sup_RN50_gauss_6_for_60_epoch5,1,1165,NaN,elephant,oven,0,oven5-bird1.png,
gauss_6_sup_RN50_gauss_6_for_60_epoch5,1,1166,NaN,bottle,oven,0,oven5-bottle3.png,
gauss_6_sup_RN50_gauss_6_for_60_epoch5,1,1167,NaN,cat,oven,0,oven5-dog3.png,
gauss_6_sup_RN50_gauss_6_for_60_epoch5,1,1168,NaN,elephant,oven,0,oven5-elephant1.png,
gauss_6_sup_RN50_gauss_6_for_60_epoch5,1,1169,NaN,bottle,oven,0,oven5-keyboard2.png,
gauss_6_sup_RN50_gauss_6_for_60_epoch5,1,1170,NaN,truck,oven,0,oven6-airplane3.png,
gauss_6_sup_RN50_gauss_6_for_60_epoch5,1,1171,NaN,elephant,oven,0,oven6-bear2.png,
gauss_6_sup_RN50_gauss_6_for_60_epoch5,1,1172,NaN,chair,oven,0,oven6-bicycle1.png,
gauss_6_sup_RN50_gauss_6_for_60_epoch5,1,1173,NaN,bottle,oven,0,oven6-bird1.png,
gauss_6_sup_RN50_gauss_6_for_60_epoch5,1,1174,NaN,airplane,oven,0,oven6-chair3.png,
gauss_6_sup_RN50_gauss_6_for_60_epoch5,1,1175,NaN,elephant,oven,0,oven6-elephant2.png,
gauss_6_sup_RN50_gauss_6_for_60_epoch5,1,1176,NaN,knife,oven,0,oven6-knife3.png,
gauss_6_sup_RN50_gauss_6_for_60_epoch5,1,1177,NaN,oven,oven,0,oven6-oven3.png,
gauss_6_sup_RN50_gauss_6_for_60_epoch5,1,1178,NaN,truck,oven,0,oven6-truck1.png,
gauss_6_sup_RN50_gauss_6_for_60_epoch5,1,1179,NaN,bottle,oven,0,oven7-bottle1.png,
gauss_6_sup_RN50_gauss_6_for_60_epoch5,1,1180,NaN,truck,oven,0,oven7-car3.png,
gauss_6_sup_RN50_gauss_6_for_60_epoch5,1,1181,NaN,cat,oven,0,oven7-cat1.png,
gauss_6_sup_RN50_gauss_6_for_60_epoch5,1,1182,NaN,bottle,oven,0,oven7-clock2.png,
gauss_6_sup_RN50_gauss_6_for_60_epoch5,1,1183,NaN,cat,oven,0,oven7-dog2.png,
gauss_6_sup_RN50_gauss_6_for_60_epoch5,1,1184,NaN,elephant,oven,0,oven7-elephant1.png,
gauss_6_sup_RN50_gauss_6_for_60_epoch5,1,1185,NaN,chair,oven,0,oven7-keyboard1.png,
gauss_6_sup_RN50_gauss_6_for_60_epoch5,1,1186,NaN,knife,oven,0,oven7-oven1.png,
gauss_6_sup_RN50_gauss_6_for_60_epoch5,1,1187,NaN,cat,oven,0,oven8-cat3.png,
gauss_6_sup_RN50_gauss_6_for_60_epoch5,1,1188,NaN,clock,oven,0,oven8-chair1.png,
gauss_6_sup_RN50_gauss_6_for_60_epoch5,1,1189,NaN,keyboard,oven,0,oven8-keyboard3.png,
gauss_6_sup_RN50_gauss_6_for_60_epoch5,1,1190,NaN,oven,oven,0,oven8-knife2.png,
gauss_6_sup_RN50_gauss_6_for_60_epoch5,1,1191,NaN,truck,oven,0,oven9-airplane2.png,
gauss_6_sup_RN50_gauss_6_for_60_epoch5,1,1192,NaN,elephant,oven,0,oven9-bear2.png,
gauss_6_sup_RN50_gauss_6_for_60_epoch5,1,1193,NaN,oven,oven,0,oven9-bird3.png,
gauss_6_sup_RN50_gauss_6_for_60_epoch5,1,1194,NaN,boat,oven,0,oven9-boat2.png,
gauss_6_sup_RN50_gauss_6_for_60_epoch5,1,1195,NaN,car,oven,0,oven9-car2.png,
gauss_6_sup_RN50_gauss_6_for_60_epoch5,1,1196,NaN,chair,oven,0,oven9-chair1.png,
gauss_6_sup_RN50_gauss_6_for_60_epoch5,1,1197,NaN,keyboard,oven,0,oven9-clock2.png,
gauss_6_sup_RN50_gauss_6_for_60_epoch5,1,1198,NaN,keyboard,oven,0,oven9-keyboard1.png,
