subj,session,trial,rt,object_response,category,condition,imagename,
shape_bias_gauss_4_for_30_epoch_to_gauss_0_for_30_lr_15_epoch5,1,1,NaN,dog,airplane,0,airplane1-bicycle2.png,
shape_bias_gauss_4_for_30_epoch_to_gauss_0_for_30_lr_15_epoch5,1,2,NaN,dog,airplane,0,airplane1-chair2.png,
shape_bias_gauss_4_for_30_epoch_to_gauss_0_for_30_lr_15_epoch5,1,3,NaN,dog,airplane,0,airplane1-clock1.png,
shape_bias_gauss_4_for_30_epoch_to_gauss_0_for_30_lr_15_epoch5,1,4,NaN,dog,airplane,0,airplane1-elephant1.png,
shape_bias_gauss_4_for_30_epoch_to_gauss_0_for_30_lr_15_epoch5,1,5,NaN,dog,airplane,0,airplane10-airplane1.png,
shape_bias_gauss_4_for_30_epoch_to_gauss_0_for_30_lr_15_epoch5,1,6,NaN,dog,airplane,0,airplane10-bear3.png,
shape_bias_gauss_4_for_30_epoch_to_gauss_0_for_30_lr_15_epoch5,1,7,NaN,dog,airplane,0,airplane10-boat3.png,
shape_bias_gauss_4_for_30_epoch_to_gauss_0_for_30_lr_15_epoch5,1,8,NaN,dog,airplane,0,airplane10-car3.png,
shape_bias_gauss_4_for_30_epoch_to_gauss_0_for_30_lr_15_epoch5,1,9,NaN,dog,airplane,0,airplane10-cat2.png,
shape_bias_gauss_4_for_30_epoch_to_gauss_0_for_30_lr_15_epoch5,1,10,NaN,dog,airplane,0,airplane10-dog3.png,
shape_bias_gauss_4_for_30_epoch_to_gauss_0_for_30_lr_15_epoch5,1,11,NaN,dog,airplane,0,airplane10-elephant1.png,
shape_bias_gauss_4_for_30_epoch_to_gauss_0_for_30_lr_15_epoch5,1,12,NaN,dog,airplane,0,airplane10-knife3.png,
shape_bias_gauss_4_for_30_epoch_to_gauss_0_for_30_lr_15_epoch5,1,13,NaN,dog,airplane,0,airplane10-oven2.png,
shape_bias_gauss_4_for_30_epoch_to_gauss_0_for_30_lr_15_epoch5,1,14,NaN,dog,airplane,0,airplane10-truck1.png,
shape_bias_gauss_4_for_30_epoch_to_gauss_0_for_30_lr_15_epoch5,1,15,NaN,dog,airplane,0,airplane2-bear1.png,
shape_bias_gauss_4_for_30_epoch_to_gauss_0_for_30_lr_15_epoch5,1,16,NaN,dog,airplane,0,airplane2-bicycle1.png,
shape_bias_gauss_4_for_30_epoch_to_gauss_0_for_30_lr_15_epoch5,1,17,NaN,dog,airplane,0,airplane2-bird3.png,
shape_bias_gauss_4_for_30_epoch_to_gauss_0_for_30_lr_15_epoch5,1,18,NaN,dog,airplane,0,airplane2-bottle1.png,
shape_bias_gauss_4_for_30_epoch_to_gauss_0_for_30_lr_15_epoch5,1,19,NaN,dog,airplane,0,airplane2-cat1.png,
shape_bias_gauss_4_for_30_epoch_to_gauss_0_for_30_lr_15_epoch5,1,20,NaN,dog,airplane,0,airplane2-dog1.png,
shape_bias_gauss_4_for_30_epoch_to_gauss_0_for_30_lr_15_epoch5,1,21,NaN,dog,airplane,0,airplane3-airplane2.png,
shape_bias_gauss_4_for_30_epoch_to_gauss_0_for_30_lr_15_epoch5,1,22,NaN,dog,airplane,0,airplane3-car1.png,
shape_bias_gauss_4_for_30_epoch_to_gauss_0_for_30_lr_15_epoch5,1,23,NaN,dog,airplane,0,airplane3-cat1.png,
shape_bias_gauss_4_for_30_epoch_to_gauss_0_for_30_lr_15_epoch5,1,24,NaN,dog,airplane,0,airplane3-chair3.png,
shape_bias_gauss_4_for_30_epoch_to_gauss_0_for_30_lr_15_epoch5,1,25,NaN,dog,airplane,0,airplane3-clock1.png,
shape_bias_gauss_4_for_30_epoch_to_gauss_0_for_30_lr_15_epoch5,1,26,NaN,dog,airplane,0,airplane3-dog1.png,
shape_bias_gauss_4_for_30_epoch_to_gauss_0_for_30_lr_15_epoch5,1,27,NaN,dog,airplane,0,airplane3-elephant1.png,
shape_bias_gauss_4_for_30_epoch_to_gauss_0_for_30_lr_15_epoch5,1,28,NaN,dog,airplane,0,airplane3-keyboard2.png,
shape_bias_gauss_4_for_30_epoch_to_gauss_0_for_30_lr_15_epoch5,1,29,NaN,dog,airplane,0,airplane3-oven1.png,
shape_bias_gauss_4_for_30_epoch_to_gauss_0_for_30_lr_15_epoch5,1,30,NaN,dog,airplane,0,airplane4-airplane1.png,
shape_bias_gauss_4_for_30_epoch_to_gauss_0_for_30_lr_15_epoch5,1,31,NaN,dog,airplane,0,airplane4-bear3.png,
shape_bias_gauss_4_for_30_epoch_to_gauss_0_for_30_lr_15_epoch5,1,32,NaN,dog,airplane,0,airplane4-bicycle2.png,
shape_bias_gauss_4_for_30_epoch_to_gauss_0_for_30_lr_15_epoch5,1,33,NaN,dog,airplane,0,airplane4-bird3.png,
shape_bias_gauss_4_for_30_epoch_to_gauss_0_for_30_lr_15_epoch5,1,34,NaN,dog,airplane,0,airplane4-boat3.png,
shape_bias_gauss_4_for_30_epoch_to_gauss_0_for_30_lr_15_epoch5,1,35,NaN,dog,airplane,0,airplane4-bottle1.png,
shape_bias_gauss_4_for_30_epoch_to_gauss_0_for_30_lr_15_epoch5,1,36,NaN,dog,airplane,0,airplane4-car1.png,
shape_bias_gauss_4_for_30_epoch_to_gauss_0_for_30_lr_15_epoch5,1,37,NaN,dog,airplane,0,airplane4-cat3.png,
shape_bias_gauss_4_for_30_epoch_to_gauss_0_for_30_lr_15_epoch5,1,38,NaN,dog,airplane,0,airplane4-dog2.png,
shape_bias_gauss_4_for_30_epoch_to_gauss_0_for_30_lr_15_epoch5,1,39,NaN,dog,airplane,0,airplane4-elephant1.png,
shape_bias_gauss_4_for_30_epoch_to_gauss_0_for_30_lr_15_epoch5,1,40,NaN,dog,airplane,0,airplane4-keyboard3.png,
shape_bias_gauss_4_for_30_epoch_to_gauss_0_for_30_lr_15_epoch5,1,41,NaN,dog,airplane,0,airplane4-knife1.png,
shape_bias_gauss_4_for_30_epoch_to_gauss_0_for_30_lr_15_epoch5,1,42,NaN,dog,airplane,0,airplane4-truck2.png,
shape_bias_gauss_4_for_30_epoch_to_gauss_0_for_30_lr_15_epoch5,1,43,NaN,dog,airplane,0,airplane5-bear2.png,
shape_bias_gauss_4_for_30_epoch_to_gauss_0_for_30_lr_15_epoch5,1,44,NaN,dog,airplane,0,airplane5-bicycle1.png,
shape_bias_gauss_4_for_30_epoch_to_gauss_0_for_30_lr_15_epoch5,1,45,NaN,dog,airplane,0,airplane5-bird2.png,
shape_bias_gauss_4_for_30_epoch_to_gauss_0_for_30_lr_15_epoch5,1,46,NaN,dog,airplane,0,airplane5-boat3.png,
shape_bias_gauss_4_for_30_epoch_to_gauss_0_for_30_lr_15_epoch5,1,47,NaN,dog,airplane,0,airplane5-bottle3.png,
shape_bias_gauss_4_for_30_epoch_to_gauss_0_for_30_lr_15_epoch5,1,48,NaN,dog,airplane,0,airplane5-chair3.png,
shape_bias_gauss_4_for_30_epoch_to_gauss_0_for_30_lr_15_epoch5,1,49,NaN,dog,airplane,0,airplane5-dog3.png,
shape_bias_gauss_4_for_30_epoch_to_gauss_0_for_30_lr_15_epoch5,1,50,NaN,dog,airplane,0,airplane5-knife1.png,
shape_bias_gauss_4_for_30_epoch_to_gauss_0_for_30_lr_15_epoch5,1,51,NaN,dog,airplane,0,airplane5-oven3.png,
shape_bias_gauss_4_for_30_epoch_to_gauss_0_for_30_lr_15_epoch5,1,52,NaN,dog,airplane,0,airplane6-bear3.png,
shape_bias_gauss_4_for_30_epoch_to_gauss_0_for_30_lr_15_epoch5,1,53,NaN,dog,airplane,0,airplane6-bottle2.png,
shape_bias_gauss_4_for_30_epoch_to_gauss_0_for_30_lr_15_epoch5,1,54,NaN,dog,airplane,0,airplane6-chair3.png,
shape_bias_gauss_4_for_30_epoch_to_gauss_0_for_30_lr_15_epoch5,1,55,NaN,dog,airplane,0,airplane6-keyboard3.png,
shape_bias_gauss_4_for_30_epoch_to_gauss_0_for_30_lr_15_epoch5,1,56,NaN,dog,airplane,0,airplane6-knife1.png,
shape_bias_gauss_4_for_30_epoch_to_gauss_0_for_30_lr_15_epoch5,1,57,NaN,dog,airplane,0,airplane7-airplane3.png,
shape_bias_gauss_4_for_30_epoch_to_gauss_0_for_30_lr_15_epoch5,1,58,NaN,dog,airplane,0,airplane7-bird3.png,
shape_bias_gauss_4_for_30_epoch_to_gauss_0_for_30_lr_15_epoch5,1,59,NaN,dog,airplane,0,airplane7-boat2.png,
shape_bias_gauss_4_for_30_epoch_to_gauss_0_for_30_lr_15_epoch5,1,60,NaN,dog,airplane,0,airplane7-bottle3.png,
shape_bias_gauss_4_for_30_epoch_to_gauss_0_for_30_lr_15_epoch5,1,61,NaN,dog,airplane,0,airplane7-car1.png,
shape_bias_gauss_4_for_30_epoch_to_gauss_0_for_30_lr_15_epoch5,1,62,NaN,dog,airplane,0,airplane7-cat3.png,
shape_bias_gauss_4_for_30_epoch_to_gauss_0_for_30_lr_15_epoch5,1,63,NaN,dog,airplane,0,airplane7-clock3.png,
shape_bias_gauss_4_for_30_epoch_to_gauss_0_for_30_lr_15_epoch5,1,64,NaN,dog,airplane,0,airplane7-keyboard1.png,
shape_bias_gauss_4_for_30_epoch_to_gauss_0_for_30_lr_15_epoch5,1,65,NaN,dog,airplane,0,airplane7-truck1.png,
shape_bias_gauss_4_for_30_epoch_to_gauss_0_for_30_lr_15_epoch5,1,66,NaN,dog,airplane,0,airplane8-bicycle3.png,
shape_bias_gauss_4_for_30_epoch_to_gauss_0_for_30_lr_15_epoch5,1,67,NaN,clock,airplane,0,airplane8-bird1.png,
shape_bias_gauss_4_for_30_epoch_to_gauss_0_for_30_lr_15_epoch5,1,68,NaN,dog,airplane,0,airplane8-chair1.png,
shape_bias_gauss_4_for_30_epoch_to_gauss_0_for_30_lr_15_epoch5,1,69,NaN,dog,airplane,0,airplane8-clock2.png,
shape_bias_gauss_4_for_30_epoch_to_gauss_0_for_30_lr_15_epoch5,1,70,NaN,dog,airplane,0,airplane8-elephant3.png,
shape_bias_gauss_4_for_30_epoch_to_gauss_0_for_30_lr_15_epoch5,1,71,NaN,dog,airplane,0,airplane8-oven2.png,
shape_bias_gauss_4_for_30_epoch_to_gauss_0_for_30_lr_15_epoch5,1,72,NaN,dog,airplane,0,airplane8-truck3.png,
shape_bias_gauss_4_for_30_epoch_to_gauss_0_for_30_lr_15_epoch5,1,73,NaN,dog,airplane,0,airplane9-airplane2.png,
shape_bias_gauss_4_for_30_epoch_to_gauss_0_for_30_lr_15_epoch5,1,74,NaN,dog,airplane,0,airplane9-boat1.png,
shape_bias_gauss_4_for_30_epoch_to_gauss_0_for_30_lr_15_epoch5,1,75,NaN,dog,airplane,0,airplane9-car2.png,
shape_bias_gauss_4_for_30_epoch_to_gauss_0_for_30_lr_15_epoch5,1,76,NaN,dog,airplane,0,airplane9-clock1.png,
shape_bias_gauss_4_for_30_epoch_to_gauss_0_for_30_lr_15_epoch5,1,77,NaN,dog,airplane,0,airplane9-keyboard2.png,
shape_bias_gauss_4_for_30_epoch_to_gauss_0_for_30_lr_15_epoch5,1,78,NaN,dog,airplane,0,airplane9-knife3.png,
shape_bias_gauss_4_for_30_epoch_to_gauss_0_for_30_lr_15_epoch5,1,79,NaN,dog,airplane,0,airplane9-oven2.png,
shape_bias_gauss_4_for_30_epoch_to_gauss_0_for_30_lr_15_epoch5,1,80,NaN,dog,airplane,0,airplane9-truck1.png,
shape_bias_gauss_4_for_30_epoch_to_gauss_0_for_30_lr_15_epoch5,1,81,NaN,dog,bear,0,bear1-airplane3.png,
shape_bias_gauss_4_for_30_epoch_to_gauss_0_for_30_lr_15_epoch5,1,82,NaN,dog,bear,0,bear1-bear3.png,
shape_bias_gauss_4_for_30_epoch_to_gauss_0_for_30_lr_15_epoch5,1,83,NaN,dog,bear,0,bear1-bicycle3.png,
shape_bias_gauss_4_for_30_epoch_to_gauss_0_for_30_lr_15_epoch5,1,84,NaN,dog,bear,0,bear1-bird2.png,
shape_bias_gauss_4_for_30_epoch_to_gauss_0_for_30_lr_15_epoch5,1,85,NaN,dog,bear,0,bear1-chair2.png,
shape_bias_gauss_4_for_30_epoch_to_gauss_0_for_30_lr_15_epoch5,1,86,NaN,dog,bear,0,bear1-clock2.png,
shape_bias_gauss_4_for_30_epoch_to_gauss_0_for_30_lr_15_epoch5,1,87,NaN,clock,bear,0,bear1-elephant1.png,
shape_bias_gauss_4_for_30_epoch_to_gauss_0_for_30_lr_15_epoch5,1,88,NaN,dog,bear,0,bear10-bear2.png,
shape_bias_gauss_4_for_30_epoch_to_gauss_0_for_30_lr_15_epoch5,1,89,NaN,dog,bear,0,bear10-bottle1.png,
shape_bias_gauss_4_for_30_epoch_to_gauss_0_for_30_lr_15_epoch5,1,90,NaN,dog,bear,0,bear10-car2.png,
shape_bias_gauss_4_for_30_epoch_to_gauss_0_for_30_lr_15_epoch5,1,91,NaN,dog,bear,0,bear10-cat2.png,
shape_bias_gauss_4_for_30_epoch_to_gauss_0_for_30_lr_15_epoch5,1,92,NaN,dog,bear,0,bear10-chair2.png,
shape_bias_gauss_4_for_30_epoch_to_gauss_0_for_30_lr_15_epoch5,1,93,NaN,dog,bear,0,bear10-clock1.png,
shape_bias_gauss_4_for_30_epoch_to_gauss_0_for_30_lr_15_epoch5,1,94,NaN,dog,bear,0,bear10-elephant1.png,
shape_bias_gauss_4_for_30_epoch_to_gauss_0_for_30_lr_15_epoch5,1,95,NaN,dog,bear,0,bear10-keyboard3.png,
shape_bias_gauss_4_for_30_epoch_to_gauss_0_for_30_lr_15_epoch5,1,96,NaN,dog,bear,0,bear10-knife2.png,
shape_bias_gauss_4_for_30_epoch_to_gauss_0_for_30_lr_15_epoch5,1,97,NaN,dog,bear,0,bear10-oven1.png,
shape_bias_gauss_4_for_30_epoch_to_gauss_0_for_30_lr_15_epoch5,1,98,NaN,dog,bear,0,bear10-truck1.png,
shape_bias_gauss_4_for_30_epoch_to_gauss_0_for_30_lr_15_epoch5,1,99,NaN,dog,bear,0,bear2-airplane1.png,
shape_bias_gauss_4_for_30_epoch_to_gauss_0_for_30_lr_15_epoch5,1,100,NaN,dog,bear,0,bear2-bird3.png,
shape_bias_gauss_4_for_30_epoch_to_gauss_0_for_30_lr_15_epoch5,1,101,NaN,dog,bear,0,bear2-car2.png,
shape_bias_gauss_4_for_30_epoch_to_gauss_0_for_30_lr_15_epoch5,1,102,NaN,dog,bear,0,bear2-cat2.png,
shape_bias_gauss_4_for_30_epoch_to_gauss_0_for_30_lr_15_epoch5,1,103,NaN,dog,bear,0,bear2-dog1.png,
shape_bias_gauss_4_for_30_epoch_to_gauss_0_for_30_lr_15_epoch5,1,104,NaN,dog,bear,0,bear2-elephant1.png,
shape_bias_gauss_4_for_30_epoch_to_gauss_0_for_30_lr_15_epoch5,1,105,NaN,dog,bear,0,bear2-keyboard2.png,
shape_bias_gauss_4_for_30_epoch_to_gauss_0_for_30_lr_15_epoch5,1,106,NaN,dog,bear,0,bear2-knife2.png,
shape_bias_gauss_4_for_30_epoch_to_gauss_0_for_30_lr_15_epoch5,1,107,NaN,dog,bear,0,bear2-oven1.png,
shape_bias_gauss_4_for_30_epoch_to_gauss_0_for_30_lr_15_epoch5,1,108,NaN,dog,bear,0,bear3-airplane1.png,
shape_bias_gauss_4_for_30_epoch_to_gauss_0_for_30_lr_15_epoch5,1,109,NaN,dog,bear,0,bear3-bicycle2.png,
shape_bias_gauss_4_for_30_epoch_to_gauss_0_for_30_lr_15_epoch5,1,110,NaN,dog,bear,0,bear3-bird3.png,
shape_bias_gauss_4_for_30_epoch_to_gauss_0_for_30_lr_15_epoch5,1,111,NaN,dog,bear,0,bear3-car2.png,
shape_bias_gauss_4_for_30_epoch_to_gauss_0_for_30_lr_15_epoch5,1,112,NaN,dog,bear,0,bear3-cat1.png,
shape_bias_gauss_4_for_30_epoch_to_gauss_0_for_30_lr_15_epoch5,1,113,NaN,dog,bear,0,bear3-chair2.png,
shape_bias_gauss_4_for_30_epoch_to_gauss_0_for_30_lr_15_epoch5,1,114,NaN,dog,bear,0,bear3-dog3.png,
shape_bias_gauss_4_for_30_epoch_to_gauss_0_for_30_lr_15_epoch5,1,115,NaN,dog,bear,0,bear3-keyboard2.png,
shape_bias_gauss_4_for_30_epoch_to_gauss_0_for_30_lr_15_epoch5,1,116,NaN,dog,bear,0,bear3-truck3.png,
shape_bias_gauss_4_for_30_epoch_to_gauss_0_for_30_lr_15_epoch5,1,117,NaN,dog,bear,0,bear4-boat2.png,
shape_bias_gauss_4_for_30_epoch_to_gauss_0_for_30_lr_15_epoch5,1,118,NaN,dog,bear,0,bear4-car3.png,
shape_bias_gauss_4_for_30_epoch_to_gauss_0_for_30_lr_15_epoch5,1,119,NaN,dog,bear,0,bear4-cat3.png,
shape_bias_gauss_4_for_30_epoch_to_gauss_0_for_30_lr_15_epoch5,1,120,NaN,dog,bear,0,bear4-clock3.png,
shape_bias_gauss_4_for_30_epoch_to_gauss_0_for_30_lr_15_epoch5,1,121,NaN,dog,bear,0,bear4-elephant2.png,
shape_bias_gauss_4_for_30_epoch_to_gauss_0_for_30_lr_15_epoch5,1,122,NaN,dog,bear,0,bear4-keyboard3.png,
shape_bias_gauss_4_for_30_epoch_to_gauss_0_for_30_lr_15_epoch5,1,123,NaN,dog,bear,0,bear4-knife1.png,
shape_bias_gauss_4_for_30_epoch_to_gauss_0_for_30_lr_15_epoch5,1,124,NaN,dog,bear,0,bear4-oven2.png,
shape_bias_gauss_4_for_30_epoch_to_gauss_0_for_30_lr_15_epoch5,1,125,NaN,dog,bear,0,bear4-truck3.png,
shape_bias_gauss_4_for_30_epoch_to_gauss_0_for_30_lr_15_epoch5,1,126,NaN,dog,bear,0,bear5-airplane3.png,
shape_bias_gauss_4_for_30_epoch_to_gauss_0_for_30_lr_15_epoch5,1,127,NaN,dog,bear,0,bear5-bicycle3.png,
shape_bias_gauss_4_for_30_epoch_to_gauss_0_for_30_lr_15_epoch5,1,128,NaN,dog,bear,0,bear5-bird1.png,
shape_bias_gauss_4_for_30_epoch_to_gauss_0_for_30_lr_15_epoch5,1,129,NaN,dog,bear,0,bear5-boat2.png,
shape_bias_gauss_4_for_30_epoch_to_gauss_0_for_30_lr_15_epoch5,1,130,NaN,dog,bear,0,bear5-bottle1.png,
shape_bias_gauss_4_for_30_epoch_to_gauss_0_for_30_lr_15_epoch5,1,131,NaN,dog,bear,0,bear5-chair1.png,
shape_bias_gauss_4_for_30_epoch_to_gauss_0_for_30_lr_15_epoch5,1,132,NaN,dog,bear,0,bear5-oven3.png,
shape_bias_gauss_4_for_30_epoch_to_gauss_0_for_30_lr_15_epoch5,1,133,NaN,dog,bear,0,bear6-bear1.png,
shape_bias_gauss_4_for_30_epoch_to_gauss_0_for_30_lr_15_epoch5,1,134,NaN,dog,bear,0,bear6-bird2.png,
shape_bias_gauss_4_for_30_epoch_to_gauss_0_for_30_lr_15_epoch5,1,135,NaN,dog,bear,0,bear6-boat3.png,
shape_bias_gauss_4_for_30_epoch_to_gauss_0_for_30_lr_15_epoch5,1,136,NaN,dog,bear,0,bear6-bottle3.png,
shape_bias_gauss_4_for_30_epoch_to_gauss_0_for_30_lr_15_epoch5,1,137,NaN,dog,bear,0,bear6-car2.png,
shape_bias_gauss_4_for_30_epoch_to_gauss_0_for_30_lr_15_epoch5,1,138,NaN,dog,bear,0,bear6-cat3.png,
shape_bias_gauss_4_for_30_epoch_to_gauss_0_for_30_lr_15_epoch5,1,139,NaN,dog,bear,0,bear6-chair1.png,
shape_bias_gauss_4_for_30_epoch_to_gauss_0_for_30_lr_15_epoch5,1,140,NaN,dog,bear,0,bear6-clock1.png,
shape_bias_gauss_4_for_30_epoch_to_gauss_0_for_30_lr_15_epoch5,1,141,NaN,dog,bear,0,bear7-bear2.png,
shape_bias_gauss_4_for_30_epoch_to_gauss_0_for_30_lr_15_epoch5,1,142,NaN,dog,bear,0,bear7-bicycle2.png,
shape_bias_gauss_4_for_30_epoch_to_gauss_0_for_30_lr_15_epoch5,1,143,NaN,dog,bear,0,bear7-clock1.png,
shape_bias_gauss_4_for_30_epoch_to_gauss_0_for_30_lr_15_epoch5,1,144,NaN,dog,bear,0,bear7-dog3.png,
shape_bias_gauss_4_for_30_epoch_to_gauss_0_for_30_lr_15_epoch5,1,145,NaN,dog,bear,0,bear7-oven3.png,
shape_bias_gauss_4_for_30_epoch_to_gauss_0_for_30_lr_15_epoch5,1,146,NaN,dog,bear,0,bear7-truck1.png,
shape_bias_gauss_4_for_30_epoch_to_gauss_0_for_30_lr_15_epoch5,1,147,NaN,dog,bear,0,bear8-airplane1.png,
shape_bias_gauss_4_for_30_epoch_to_gauss_0_for_30_lr_15_epoch5,1,148,NaN,dog,bear,0,bear8-bear1.png,
shape_bias_gauss_4_for_30_epoch_to_gauss_0_for_30_lr_15_epoch5,1,149,NaN,dog,bear,0,bear8-bicycle3.png,
shape_bias_gauss_4_for_30_epoch_to_gauss_0_for_30_lr_15_epoch5,1,150,NaN,dog,bear,0,bear8-boat2.png,
shape_bias_gauss_4_for_30_epoch_to_gauss_0_for_30_lr_15_epoch5,1,151,NaN,dog,bear,0,bear8-bottle1.png,
shape_bias_gauss_4_for_30_epoch_to_gauss_0_for_30_lr_15_epoch5,1,152,NaN,dog,bear,0,bear8-dog1.png,
shape_bias_gauss_4_for_30_epoch_to_gauss_0_for_30_lr_15_epoch5,1,153,NaN,dog,bear,0,bear8-elephant2.png,
shape_bias_gauss_4_for_30_epoch_to_gauss_0_for_30_lr_15_epoch5,1,154,NaN,dog,bear,0,bear8-knife3.png,
shape_bias_gauss_4_for_30_epoch_to_gauss_0_for_30_lr_15_epoch5,1,155,NaN,dog,bear,0,bear8-truck3.png,
shape_bias_gauss_4_for_30_epoch_to_gauss_0_for_30_lr_15_epoch5,1,156,NaN,dog,bear,0,bear9-boat2.png,
shape_bias_gauss_4_for_30_epoch_to_gauss_0_for_30_lr_15_epoch5,1,157,NaN,dog,bear,0,bear9-bottle2.png,
shape_bias_gauss_4_for_30_epoch_to_gauss_0_for_30_lr_15_epoch5,1,158,NaN,dog,bear,0,bear9-dog1.png,
shape_bias_gauss_4_for_30_epoch_to_gauss_0_for_30_lr_15_epoch5,1,159,NaN,dog,bear,0,bear9-keyboard3.png,
shape_bias_gauss_4_for_30_epoch_to_gauss_0_for_30_lr_15_epoch5,1,160,NaN,dog,bear,0,bear9-knife2.png,
shape_bias_gauss_4_for_30_epoch_to_gauss_0_for_30_lr_15_epoch5,1,161,NaN,dog,bicycle,0,bicycle1-airplane2.png,
shape_bias_gauss_4_for_30_epoch_to_gauss_0_for_30_lr_15_epoch5,1,162,NaN,dog,bicycle,0,bicycle1-bear1.png,
shape_bias_gauss_4_for_30_epoch_to_gauss_0_for_30_lr_15_epoch5,1,163,NaN,dog,bicycle,0,bicycle1-bicycle3.png,
shape_bias_gauss_4_for_30_epoch_to_gauss_0_for_30_lr_15_epoch5,1,164,NaN,dog,bicycle,0,bicycle1-bird1.png,
shape_bias_gauss_4_for_30_epoch_to_gauss_0_for_30_lr_15_epoch5,1,165,NaN,dog,bicycle,0,bicycle1-boat3.png,
shape_bias_gauss_4_for_30_epoch_to_gauss_0_for_30_lr_15_epoch5,1,166,NaN,dog,bicycle,0,bicycle1-bottle3.png,
shape_bias_gauss_4_for_30_epoch_to_gauss_0_for_30_lr_15_epoch5,1,167,NaN,dog,bicycle,0,bicycle1-chair1.png,
shape_bias_gauss_4_for_30_epoch_to_gauss_0_for_30_lr_15_epoch5,1,168,NaN,dog,bicycle,0,bicycle1-clock3.png,
shape_bias_gauss_4_for_30_epoch_to_gauss_0_for_30_lr_15_epoch5,1,169,NaN,dog,bicycle,0,bicycle1-dog3.png,
shape_bias_gauss_4_for_30_epoch_to_gauss_0_for_30_lr_15_epoch5,1,170,NaN,dog,bicycle,0,bicycle1-elephant2.png,
shape_bias_gauss_4_for_30_epoch_to_gauss_0_for_30_lr_15_epoch5,1,171,NaN,dog,bicycle,0,bicycle1-knife3.png,
shape_bias_gauss_4_for_30_epoch_to_gauss_0_for_30_lr_15_epoch5,1,172,NaN,dog,bicycle,0,bicycle1-oven1.png,
shape_bias_gauss_4_for_30_epoch_to_gauss_0_for_30_lr_15_epoch5,1,173,NaN,dog,bicycle,0,bicycle1-truck1.png,
shape_bias_gauss_4_for_30_epoch_to_gauss_0_for_30_lr_15_epoch5,1,174,NaN,dog,bicycle,0,bicycle10-airplane2.png,
shape_bias_gauss_4_for_30_epoch_to_gauss_0_for_30_lr_15_epoch5,1,175,NaN,dog,bicycle,0,bicycle10-boat3.png,
shape_bias_gauss_4_for_30_epoch_to_gauss_0_for_30_lr_15_epoch5,1,176,NaN,dog,bicycle,0,bicycle10-clock2.png,
shape_bias_gauss_4_for_30_epoch_to_gauss_0_for_30_lr_15_epoch5,1,177,NaN,dog,bicycle,0,bicycle10-dog3.png,
shape_bias_gauss_4_for_30_epoch_to_gauss_0_for_30_lr_15_epoch5,1,178,NaN,dog,bicycle,0,bicycle10-elephant2.png,
shape_bias_gauss_4_for_30_epoch_to_gauss_0_for_30_lr_15_epoch5,1,179,NaN,dog,bicycle,0,bicycle2-bicycle1.png,
shape_bias_gauss_4_for_30_epoch_to_gauss_0_for_30_lr_15_epoch5,1,180,NaN,dog,bicycle,0,bicycle2-bird3.png,
shape_bias_gauss_4_for_30_epoch_to_gauss_0_for_30_lr_15_epoch5,1,181,NaN,dog,bicycle,0,bicycle2-bottle1.png,
shape_bias_gauss_4_for_30_epoch_to_gauss_0_for_30_lr_15_epoch5,1,182,NaN,dog,bicycle,0,bicycle2-car2.png,
shape_bias_gauss_4_for_30_epoch_to_gauss_0_for_30_lr_15_epoch5,1,183,NaN,dog,bicycle,0,bicycle2-dog1.png,
shape_bias_gauss_4_for_30_epoch_to_gauss_0_for_30_lr_15_epoch5,1,184,NaN,dog,bicycle,0,bicycle2-keyboard2.png,
shape_bias_gauss_4_for_30_epoch_to_gauss_0_for_30_lr_15_epoch5,1,185,NaN,dog,bicycle,0,bicycle2-knife2.png,
shape_bias_gauss_4_for_30_epoch_to_gauss_0_for_30_lr_15_epoch5,1,186,NaN,clock,bicycle,0,bicycle3-bird1.png,
shape_bias_gauss_4_for_30_epoch_to_gauss_0_for_30_lr_15_epoch5,1,187,NaN,dog,bicycle,0,bicycle3-elephant2.png,
shape_bias_gauss_4_for_30_epoch_to_gauss_0_for_30_lr_15_epoch5,1,188,NaN,dog,bicycle,0,bicycle3-keyboard1.png,
shape_bias_gauss_4_for_30_epoch_to_gauss_0_for_30_lr_15_epoch5,1,189,NaN,dog,bicycle,0,bicycle3-oven3.png,
shape_bias_gauss_4_for_30_epoch_to_gauss_0_for_30_lr_15_epoch5,1,190,NaN,dog,bicycle,0,bicycle3-truck3.png,
shape_bias_gauss_4_for_30_epoch_to_gauss_0_for_30_lr_15_epoch5,1,191,NaN,dog,bicycle,0,bicycle4-airplane1.png,
shape_bias_gauss_4_for_30_epoch_to_gauss_0_for_30_lr_15_epoch5,1,192,NaN,dog,bicycle,0,bicycle4-bicycle3.png,
shape_bias_gauss_4_for_30_epoch_to_gauss_0_for_30_lr_15_epoch5,1,193,NaN,dog,bicycle,0,bicycle4-boat1.png,
shape_bias_gauss_4_for_30_epoch_to_gauss_0_for_30_lr_15_epoch5,1,194,NaN,dog,bicycle,0,bicycle4-bottle1.png,
shape_bias_gauss_4_for_30_epoch_to_gauss_0_for_30_lr_15_epoch5,1,195,NaN,dog,bicycle,0,bicycle4-car2.png,
shape_bias_gauss_4_for_30_epoch_to_gauss_0_for_30_lr_15_epoch5,1,196,NaN,dog,bicycle,0,bicycle4-cat1.png,
shape_bias_gauss_4_for_30_epoch_to_gauss_0_for_30_lr_15_epoch5,1,197,NaN,dog,bicycle,0,bicycle4-chair2.png,
shape_bias_gauss_4_for_30_epoch_to_gauss_0_for_30_lr_15_epoch5,1,198,NaN,dog,bicycle,0,bicycle4-clock3.png,
shape_bias_gauss_4_for_30_epoch_to_gauss_0_for_30_lr_15_epoch5,1,199,NaN,dog,bicycle,0,bicycle4-keyboard3.png,
shape_bias_gauss_4_for_30_epoch_to_gauss_0_for_30_lr_15_epoch5,1,200,NaN,dog,bicycle,0,bicycle4-knife3.png,
shape_bias_gauss_4_for_30_epoch_to_gauss_0_for_30_lr_15_epoch5,1,201,NaN,dog,bicycle,0,bicycle4-oven3.png,
shape_bias_gauss_4_for_30_epoch_to_gauss_0_for_30_lr_15_epoch5,1,202,NaN,dog,bicycle,0,bicycle4-truck3.png,
shape_bias_gauss_4_for_30_epoch_to_gauss_0_for_30_lr_15_epoch5,1,203,NaN,dog,bicycle,0,bicycle5-bear1.png,
shape_bias_gauss_4_for_30_epoch_to_gauss_0_for_30_lr_15_epoch5,1,204,NaN,dog,bicycle,0,bicycle5-bottle3.png,
shape_bias_gauss_4_for_30_epoch_to_gauss_0_for_30_lr_15_epoch5,1,205,NaN,dog,bicycle,0,bicycle5-car3.png,
shape_bias_gauss_4_for_30_epoch_to_gauss_0_for_30_lr_15_epoch5,1,206,NaN,dog,bicycle,0,bicycle5-cat1.png,
shape_bias_gauss_4_for_30_epoch_to_gauss_0_for_30_lr_15_epoch5,1,207,NaN,dog,bicycle,0,bicycle5-chair2.png,
shape_bias_gauss_4_for_30_epoch_to_gauss_0_for_30_lr_15_epoch5,1,208,NaN,dog,bicycle,0,bicycle5-dog2.png,
shape_bias_gauss_4_for_30_epoch_to_gauss_0_for_30_lr_15_epoch5,1,209,NaN,dog,bicycle,0,bicycle5-elephant1.png,
shape_bias_gauss_4_for_30_epoch_to_gauss_0_for_30_lr_15_epoch5,1,210,NaN,dog,bicycle,0,bicycle5-keyboard3.png,
shape_bias_gauss_4_for_30_epoch_to_gauss_0_for_30_lr_15_epoch5,1,211,NaN,dog,bicycle,0,bicycle5-oven3.png,
shape_bias_gauss_4_for_30_epoch_to_gauss_0_for_30_lr_15_epoch5,1,212,NaN,dog,bicycle,0,bicycle6-airplane2.png,
shape_bias_gauss_4_for_30_epoch_to_gauss_0_for_30_lr_15_epoch5,1,213,NaN,dog,bicycle,0,bicycle6-bicycle3.png,
shape_bias_gauss_4_for_30_epoch_to_gauss_0_for_30_lr_15_epoch5,1,214,NaN,dog,bicycle,0,bicycle6-boat2.png,
shape_bias_gauss_4_for_30_epoch_to_gauss_0_for_30_lr_15_epoch5,1,215,NaN,dog,bicycle,0,bicycle6-car2.png,
shape_bias_gauss_4_for_30_epoch_to_gauss_0_for_30_lr_15_epoch5,1,216,NaN,dog,bicycle,0,bicycle6-cat1.png,
shape_bias_gauss_4_for_30_epoch_to_gauss_0_for_30_lr_15_epoch5,1,217,NaN,dog,bicycle,0,bicycle6-dog2.png,
shape_bias_gauss_4_for_30_epoch_to_gauss_0_for_30_lr_15_epoch5,1,218,NaN,dog,bicycle,0,bicycle7-bear2.png,
shape_bias_gauss_4_for_30_epoch_to_gauss_0_for_30_lr_15_epoch5,1,219,NaN,dog,bicycle,0,bicycle7-bicycle2.png,
shape_bias_gauss_4_for_30_epoch_to_gauss_0_for_30_lr_15_epoch5,1,220,NaN,dog,bicycle,0,bicycle7-cat1.png,
shape_bias_gauss_4_for_30_epoch_to_gauss_0_for_30_lr_15_epoch5,1,221,NaN,dog,bicycle,0,bicycle7-clock3.png,
shape_bias_gauss_4_for_30_epoch_to_gauss_0_for_30_lr_15_epoch5,1,222,NaN,dog,bicycle,0,bicycle7-elephant2.png,
shape_bias_gauss_4_for_30_epoch_to_gauss_0_for_30_lr_15_epoch5,1,223,NaN,dog,bicycle,0,bicycle7-knife2.png,
shape_bias_gauss_4_for_30_epoch_to_gauss_0_for_30_lr_15_epoch5,1,224,NaN,dog,bicycle,0,bicycle7-oven1.png,
shape_bias_gauss_4_for_30_epoch_to_gauss_0_for_30_lr_15_epoch5,1,225,NaN,dog,bicycle,0,bicycle7-truck3.png,
shape_bias_gauss_4_for_30_epoch_to_gauss_0_for_30_lr_15_epoch5,1,226,NaN,dog,bicycle,0,bicycle8-bear2.png,
shape_bias_gauss_4_for_30_epoch_to_gauss_0_for_30_lr_15_epoch5,1,227,NaN,dog,bicycle,0,bicycle8-bird2.png,
shape_bias_gauss_4_for_30_epoch_to_gauss_0_for_30_lr_15_epoch5,1,228,NaN,dog,bicycle,0,bicycle8-boat1.png,
shape_bias_gauss_4_for_30_epoch_to_gauss_0_for_30_lr_15_epoch5,1,229,NaN,dog,bicycle,0,bicycle8-chair2.png,
shape_bias_gauss_4_for_30_epoch_to_gauss_0_for_30_lr_15_epoch5,1,230,NaN,dog,bicycle,0,bicycle8-clock3.png,
shape_bias_gauss_4_for_30_epoch_to_gauss_0_for_30_lr_15_epoch5,1,231,NaN,dog,bicycle,0,bicycle8-truck1.png,
shape_bias_gauss_4_for_30_epoch_to_gauss_0_for_30_lr_15_epoch5,1,232,NaN,dog,bicycle,0,bicycle9-airplane2.png,
shape_bias_gauss_4_for_30_epoch_to_gauss_0_for_30_lr_15_epoch5,1,233,NaN,dog,bicycle,0,bicycle9-bear1.png,
shape_bias_gauss_4_for_30_epoch_to_gauss_0_for_30_lr_15_epoch5,1,234,NaN,dog,bicycle,0,bicycle9-bird3.png,
shape_bias_gauss_4_for_30_epoch_to_gauss_0_for_30_lr_15_epoch5,1,235,NaN,dog,bicycle,0,bicycle9-bottle1.png,
shape_bias_gauss_4_for_30_epoch_to_gauss_0_for_30_lr_15_epoch5,1,236,NaN,dog,bicycle,0,bicycle9-car1.png,
shape_bias_gauss_4_for_30_epoch_to_gauss_0_for_30_lr_15_epoch5,1,237,NaN,dog,bicycle,0,bicycle9-cat3.png,
shape_bias_gauss_4_for_30_epoch_to_gauss_0_for_30_lr_15_epoch5,1,238,NaN,dog,bicycle,0,bicycle9-chair1.png,
shape_bias_gauss_4_for_30_epoch_to_gauss_0_for_30_lr_15_epoch5,1,239,NaN,dog,bicycle,0,bicycle9-keyboard3.png,
shape_bias_gauss_4_for_30_epoch_to_gauss_0_for_30_lr_15_epoch5,1,240,NaN,dog,bicycle,0,bicycle9-knife3.png,
shape_bias_gauss_4_for_30_epoch_to_gauss_0_for_30_lr_15_epoch5,1,241,NaN,dog,bird,0,bird1-airplane2.png,
shape_bias_gauss_4_for_30_epoch_to_gauss_0_for_30_lr_15_epoch5,1,242,NaN,dog,bird,0,bird1-bear1.png,
shape_bias_gauss_4_for_30_epoch_to_gauss_0_for_30_lr_15_epoch5,1,243,NaN,dog,bird,0,bird1-bicycle2.png,
shape_bias_gauss_4_for_30_epoch_to_gauss_0_for_30_lr_15_epoch5,1,244,NaN,dog,bird,0,bird1-boat1.png,
shape_bias_gauss_4_for_30_epoch_to_gauss_0_for_30_lr_15_epoch5,1,245,NaN,dog,bird,0,bird1-chair2.png,
shape_bias_gauss_4_for_30_epoch_to_gauss_0_for_30_lr_15_epoch5,1,246,NaN,dog,bird,0,bird1-clock3.png,
shape_bias_gauss_4_for_30_epoch_to_gauss_0_for_30_lr_15_epoch5,1,247,NaN,dog,bird,0,bird1-elephant2.png,
shape_bias_gauss_4_for_30_epoch_to_gauss_0_for_30_lr_15_epoch5,1,248,NaN,dog,bird,0,bird1-keyboard3.png,
shape_bias_gauss_4_for_30_epoch_to_gauss_0_for_30_lr_15_epoch5,1,249,NaN,dog,bird,0,bird1-knife3.png,
shape_bias_gauss_4_for_30_epoch_to_gauss_0_for_30_lr_15_epoch5,1,250,NaN,dog,bird,0,bird1-oven1.png,
shape_bias_gauss_4_for_30_epoch_to_gauss_0_for_30_lr_15_epoch5,1,251,NaN,dog,bird,0,bird1-truck1.png,
shape_bias_gauss_4_for_30_epoch_to_gauss_0_for_30_lr_15_epoch5,1,252,NaN,dog,bird,0,bird10-bear2.png,
shape_bias_gauss_4_for_30_epoch_to_gauss_0_for_30_lr_15_epoch5,1,253,NaN,dog,bird,0,bird10-bicycle1.png,
shape_bias_gauss_4_for_30_epoch_to_gauss_0_for_30_lr_15_epoch5,1,254,NaN,dog,bird,0,bird10-bird2.png,
shape_bias_gauss_4_for_30_epoch_to_gauss_0_for_30_lr_15_epoch5,1,255,NaN,dog,bird,0,bird10-cat1.png,
shape_bias_gauss_4_for_30_epoch_to_gauss_0_for_30_lr_15_epoch5,1,256,NaN,dog,bird,0,bird10-chair1.png,
shape_bias_gauss_4_for_30_epoch_to_gauss_0_for_30_lr_15_epoch5,1,257,NaN,dog,bird,0,bird10-clock1.png,
shape_bias_gauss_4_for_30_epoch_to_gauss_0_for_30_lr_15_epoch5,1,258,NaN,dog,bird,0,bird10-elephant2.png,
shape_bias_gauss_4_for_30_epoch_to_gauss_0_for_30_lr_15_epoch5,1,259,NaN,dog,bird,0,bird2-airplane3.png,
shape_bias_gauss_4_for_30_epoch_to_gauss_0_for_30_lr_15_epoch5,1,260,NaN,dog,bird,0,bird2-bird2.png,
shape_bias_gauss_4_for_30_epoch_to_gauss_0_for_30_lr_15_epoch5,1,261,NaN,dog,bird,0,bird2-car3.png,
shape_bias_gauss_4_for_30_epoch_to_gauss_0_for_30_lr_15_epoch5,1,262,NaN,dog,bird,0,bird2-clock3.png,
shape_bias_gauss_4_for_30_epoch_to_gauss_0_for_30_lr_15_epoch5,1,263,NaN,dog,bird,0,bird2-dog2.png,
shape_bias_gauss_4_for_30_epoch_to_gauss_0_for_30_lr_15_epoch5,1,264,NaN,dog,bird,0,bird2-knife1.png,
shape_bias_gauss_4_for_30_epoch_to_gauss_0_for_30_lr_15_epoch5,1,265,NaN,dog,bird,0,bird3-bear3.png,
shape_bias_gauss_4_for_30_epoch_to_gauss_0_for_30_lr_15_epoch5,1,266,NaN,dog,bird,0,bird3-bird2.png,
shape_bias_gauss_4_for_30_epoch_to_gauss_0_for_30_lr_15_epoch5,1,267,NaN,dog,bird,0,bird3-boat3.png,
shape_bias_gauss_4_for_30_epoch_to_gauss_0_for_30_lr_15_epoch5,1,268,NaN,dog,bird,0,bird3-bottle2.png,
shape_bias_gauss_4_for_30_epoch_to_gauss_0_for_30_lr_15_epoch5,1,269,NaN,dog,bird,0,bird3-cat1.png,
shape_bias_gauss_4_for_30_epoch_to_gauss_0_for_30_lr_15_epoch5,1,270,NaN,dog,bird,0,bird3-dog1.png,
shape_bias_gauss_4_for_30_epoch_to_gauss_0_for_30_lr_15_epoch5,1,271,NaN,dog,bird,0,bird3-knife3.png,
shape_bias_gauss_4_for_30_epoch_to_gauss_0_for_30_lr_15_epoch5,1,272,NaN,dog,bird,0,bird3-oven1.png,
shape_bias_gauss_4_for_30_epoch_to_gauss_0_for_30_lr_15_epoch5,1,273,NaN,dog,bird,0,bird3-truck3.png,
shape_bias_gauss_4_for_30_epoch_to_gauss_0_for_30_lr_15_epoch5,1,274,NaN,dog,bird,0,bird4-airplane1.png,
shape_bias_gauss_4_for_30_epoch_to_gauss_0_for_30_lr_15_epoch5,1,275,NaN,dog,bird,0,bird4-bicycle2.png,
shape_bias_gauss_4_for_30_epoch_to_gauss_0_for_30_lr_15_epoch5,1,276,NaN,dog,bird,0,bird4-cat3.png,
shape_bias_gauss_4_for_30_epoch_to_gauss_0_for_30_lr_15_epoch5,1,277,NaN,dog,bird,0,bird4-clock1.png,
shape_bias_gauss_4_for_30_epoch_to_gauss_0_for_30_lr_15_epoch5,1,278,NaN,dog,bird,0,bird4-dog3.png,
shape_bias_gauss_4_for_30_epoch_to_gauss_0_for_30_lr_15_epoch5,1,279,NaN,dog,bird,0,bird5-airplane3.png,
shape_bias_gauss_4_for_30_epoch_to_gauss_0_for_30_lr_15_epoch5,1,280,NaN,dog,bird,0,bird5-bear3.png,
shape_bias_gauss_4_for_30_epoch_to_gauss_0_for_30_lr_15_epoch5,1,281,NaN,dog,bird,0,bird5-bicycle1.png,
shape_bias_gauss_4_for_30_epoch_to_gauss_0_for_30_lr_15_epoch5,1,282,NaN,clock,bird,0,bird5-bird1.png,
shape_bias_gauss_4_for_30_epoch_to_gauss_0_for_30_lr_15_epoch5,1,283,NaN,dog,bird,0,bird5-car2.png,
shape_bias_gauss_4_for_30_epoch_to_gauss_0_for_30_lr_15_epoch5,1,284,NaN,dog,bird,0,bird5-cat2.png,
shape_bias_gauss_4_for_30_epoch_to_gauss_0_for_30_lr_15_epoch5,1,285,NaN,dog,bird,0,bird5-chair1.png,
shape_bias_gauss_4_for_30_epoch_to_gauss_0_for_30_lr_15_epoch5,1,286,NaN,dog,bird,0,bird5-dog2.png,
shape_bias_gauss_4_for_30_epoch_to_gauss_0_for_30_lr_15_epoch5,1,287,NaN,dog,bird,0,bird5-keyboard2.png,
shape_bias_gauss_4_for_30_epoch_to_gauss_0_for_30_lr_15_epoch5,1,288,NaN,dog,bird,0,bird5-oven3.png,
shape_bias_gauss_4_for_30_epoch_to_gauss_0_for_30_lr_15_epoch5,1,289,NaN,dog,bird,0,bird5-truck2.png,
shape_bias_gauss_4_for_30_epoch_to_gauss_0_for_30_lr_15_epoch5,1,290,NaN,dog,bird,0,bird6-airplane2.png,
shape_bias_gauss_4_for_30_epoch_to_gauss_0_for_30_lr_15_epoch5,1,291,NaN,dog,bird,0,bird6-boat2.png,
shape_bias_gauss_4_for_30_epoch_to_gauss_0_for_30_lr_15_epoch5,1,292,NaN,dog,bird,0,bird6-bottle3.png,
shape_bias_gauss_4_for_30_epoch_to_gauss_0_for_30_lr_15_epoch5,1,293,NaN,dog,bird,0,bird6-car3.png,
shape_bias_gauss_4_for_30_epoch_to_gauss_0_for_30_lr_15_epoch5,1,294,NaN,dog,bird,0,bird6-elephant2.png,
shape_bias_gauss_4_for_30_epoch_to_gauss_0_for_30_lr_15_epoch5,1,295,NaN,dog,bird,0,bird6-oven1.png,
shape_bias_gauss_4_for_30_epoch_to_gauss_0_for_30_lr_15_epoch5,1,296,NaN,dog,bird,0,bird6-truck2.png,
shape_bias_gauss_4_for_30_epoch_to_gauss_0_for_30_lr_15_epoch5,1,297,NaN,dog,bird,0,bird7-bird2.png,
shape_bias_gauss_4_for_30_epoch_to_gauss_0_for_30_lr_15_epoch5,1,298,NaN,dog,bird,0,bird7-boat1.png,
shape_bias_gauss_4_for_30_epoch_to_gauss_0_for_30_lr_15_epoch5,1,299,NaN,dog,bird,0,bird7-bottle1.png,
shape_bias_gauss_4_for_30_epoch_to_gauss_0_for_30_lr_15_epoch5,1,300,NaN,dog,bird,0,bird7-car2.png,
shape_bias_gauss_4_for_30_epoch_to_gauss_0_for_30_lr_15_epoch5,1,301,NaN,dog,bird,0,bird7-cat3.png,
shape_bias_gauss_4_for_30_epoch_to_gauss_0_for_30_lr_15_epoch5,1,302,NaN,dog,bird,0,bird7-keyboard3.png,
shape_bias_gauss_4_for_30_epoch_to_gauss_0_for_30_lr_15_epoch5,1,303,NaN,dog,bird,0,bird7-knife2.png,
shape_bias_gauss_4_for_30_epoch_to_gauss_0_for_30_lr_15_epoch5,1,304,NaN,dog,bird,0,bird7-oven3.png,
shape_bias_gauss_4_for_30_epoch_to_gauss_0_for_30_lr_15_epoch5,1,305,NaN,dog,bird,0,bird7-truck2.png,
shape_bias_gauss_4_for_30_epoch_to_gauss_0_for_30_lr_15_epoch5,1,306,NaN,dog,bird,0,bird8-boat3.png,
shape_bias_gauss_4_for_30_epoch_to_gauss_0_for_30_lr_15_epoch5,1,307,NaN,dog,bird,0,bird8-bottle1.png,
shape_bias_gauss_4_for_30_epoch_to_gauss_0_for_30_lr_15_epoch5,1,308,NaN,dog,bird,0,bird8-car2.png,
shape_bias_gauss_4_for_30_epoch_to_gauss_0_for_30_lr_15_epoch5,1,309,NaN,dog,bird,0,bird8-chair1.png,
shape_bias_gauss_4_for_30_epoch_to_gauss_0_for_30_lr_15_epoch5,1,310,NaN,dog,bird,0,bird8-clock1.png,
shape_bias_gauss_4_for_30_epoch_to_gauss_0_for_30_lr_15_epoch5,1,311,NaN,dog,bird,0,bird8-elephant1.png,
shape_bias_gauss_4_for_30_epoch_to_gauss_0_for_30_lr_15_epoch5,1,312,NaN,dog,bird,0,bird8-keyboard2.png,
shape_bias_gauss_4_for_30_epoch_to_gauss_0_for_30_lr_15_epoch5,1,313,NaN,dog,bird,0,bird8-knife2.png,
shape_bias_gauss_4_for_30_epoch_to_gauss_0_for_30_lr_15_epoch5,1,314,NaN,dog,bird,0,bird9-bear3.png,
shape_bias_gauss_4_for_30_epoch_to_gauss_0_for_30_lr_15_epoch5,1,315,NaN,dog,bird,0,bird9-bicycle3.png,
shape_bias_gauss_4_for_30_epoch_to_gauss_0_for_30_lr_15_epoch5,1,316,NaN,dog,bird,0,bird9-bottle3.png,
shape_bias_gauss_4_for_30_epoch_to_gauss_0_for_30_lr_15_epoch5,1,317,NaN,dog,bird,0,bird9-chair1.png,
shape_bias_gauss_4_for_30_epoch_to_gauss_0_for_30_lr_15_epoch5,1,318,NaN,dog,bird,0,bird9-dog2.png,
shape_bias_gauss_4_for_30_epoch_to_gauss_0_for_30_lr_15_epoch5,1,319,NaN,dog,bird,0,bird9-elephant2.png,
shape_bias_gauss_4_for_30_epoch_to_gauss_0_for_30_lr_15_epoch5,1,320,NaN,dog,bird,0,bird9-keyboard1.png,
shape_bias_gauss_4_for_30_epoch_to_gauss_0_for_30_lr_15_epoch5,1,321,NaN,dog,boat,0,boat1-bear1.png,
shape_bias_gauss_4_for_30_epoch_to_gauss_0_for_30_lr_15_epoch5,1,322,NaN,dog,boat,0,boat1-bicycle2.png,
shape_bias_gauss_4_for_30_epoch_to_gauss_0_for_30_lr_15_epoch5,1,323,NaN,dog,boat,0,boat1-bird3.png,
shape_bias_gauss_4_for_30_epoch_to_gauss_0_for_30_lr_15_epoch5,1,324,NaN,dog,boat,0,boat1-car2.png,
shape_bias_gauss_4_for_30_epoch_to_gauss_0_for_30_lr_15_epoch5,1,325,NaN,dog,boat,0,boat1-chair3.png,
shape_bias_gauss_4_for_30_epoch_to_gauss_0_for_30_lr_15_epoch5,1,326,NaN,dog,boat,0,boat1-elephant3.png,
shape_bias_gauss_4_for_30_epoch_to_gauss_0_for_30_lr_15_epoch5,1,327,NaN,dog,boat,0,boat1-keyboard3.png,
shape_bias_gauss_4_for_30_epoch_to_gauss_0_for_30_lr_15_epoch5,1,328,NaN,dog,boat,0,boat1-oven1.png,
shape_bias_gauss_4_for_30_epoch_to_gauss_0_for_30_lr_15_epoch5,1,329,NaN,dog,boat,0,boat1-truck3.png,
shape_bias_gauss_4_for_30_epoch_to_gauss_0_for_30_lr_15_epoch5,1,330,NaN,dog,boat,0,boat10-bear3.png,
shape_bias_gauss_4_for_30_epoch_to_gauss_0_for_30_lr_15_epoch5,1,331,NaN,dog,boat,0,boat10-boat3.png,
shape_bias_gauss_4_for_30_epoch_to_gauss_0_for_30_lr_15_epoch5,1,332,NaN,dog,boat,0,boat10-cat1.png,
shape_bias_gauss_4_for_30_epoch_to_gauss_0_for_30_lr_15_epoch5,1,333,NaN,dog,boat,0,boat10-oven1.png,
shape_bias_gauss_4_for_30_epoch_to_gauss_0_for_30_lr_15_epoch5,1,334,NaN,dog,boat,0,boat10-truck1.png,
shape_bias_gauss_4_for_30_epoch_to_gauss_0_for_30_lr_15_epoch5,1,335,NaN,dog,boat,0,boat2-airplane1.png,
shape_bias_gauss_4_for_30_epoch_to_gauss_0_for_30_lr_15_epoch5,1,336,NaN,dog,boat,0,boat2-bear3.png,
shape_bias_gauss_4_for_30_epoch_to_gauss_0_for_30_lr_15_epoch5,1,337,NaN,clock,boat,0,boat2-bird1.png,
shape_bias_gauss_4_for_30_epoch_to_gauss_0_for_30_lr_15_epoch5,1,338,NaN,dog,boat,0,boat2-bottle2.png,
shape_bias_gauss_4_for_30_epoch_to_gauss_0_for_30_lr_15_epoch5,1,339,NaN,dog,boat,0,boat2-keyboard1.png,
shape_bias_gauss_4_for_30_epoch_to_gauss_0_for_30_lr_15_epoch5,1,340,NaN,dog,boat,0,boat2-oven3.png,
shape_bias_gauss_4_for_30_epoch_to_gauss_0_for_30_lr_15_epoch5,1,341,NaN,dog,boat,0,boat3-airplane2.png,
shape_bias_gauss_4_for_30_epoch_to_gauss_0_for_30_lr_15_epoch5,1,342,NaN,dog,boat,0,boat3-bicycle2.png,
shape_bias_gauss_4_for_30_epoch_to_gauss_0_for_30_lr_15_epoch5,1,343,NaN,dog,boat,0,boat3-car3.png,
shape_bias_gauss_4_for_30_epoch_to_gauss_0_for_30_lr_15_epoch5,1,344,NaN,dog,boat,0,boat3-cat3.png,
shape_bias_gauss_4_for_30_epoch_to_gauss_0_for_30_lr_15_epoch5,1,345,NaN,dog,boat,0,boat3-chair3.png,
shape_bias_gauss_4_for_30_epoch_to_gauss_0_for_30_lr_15_epoch5,1,346,NaN,dog,boat,0,boat3-clock3.png,
shape_bias_gauss_4_for_30_epoch_to_gauss_0_for_30_lr_15_epoch5,1,347,NaN,dog,boat,0,boat3-dog3.png,
shape_bias_gauss_4_for_30_epoch_to_gauss_0_for_30_lr_15_epoch5,1,348,NaN,dog,boat,0,boat3-keyboard2.png,
shape_bias_gauss_4_for_30_epoch_to_gauss_0_for_30_lr_15_epoch5,1,349,NaN,dog,boat,0,boat4-bicycle3.png,
shape_bias_gauss_4_for_30_epoch_to_gauss_0_for_30_lr_15_epoch5,1,350,NaN,clock,boat,0,boat4-bird1.png,
shape_bias_gauss_4_for_30_epoch_to_gauss_0_for_30_lr_15_epoch5,1,351,NaN,dog,boat,0,boat4-boat3.png,
shape_bias_gauss_4_for_30_epoch_to_gauss_0_for_30_lr_15_epoch5,1,352,NaN,dog,boat,0,boat4-bottle2.png,
shape_bias_gauss_4_for_30_epoch_to_gauss_0_for_30_lr_15_epoch5,1,353,NaN,dog,boat,0,boat4-car3.png,
shape_bias_gauss_4_for_30_epoch_to_gauss_0_for_30_lr_15_epoch5,1,354,NaN,dog,boat,0,boat4-chair2.png,
shape_bias_gauss_4_for_30_epoch_to_gauss_0_for_30_lr_15_epoch5,1,355,NaN,dog,boat,0,boat4-dog2.png,
shape_bias_gauss_4_for_30_epoch_to_gauss_0_for_30_lr_15_epoch5,1,356,NaN,dog,boat,0,boat4-elephant2.png,
shape_bias_gauss_4_for_30_epoch_to_gauss_0_for_30_lr_15_epoch5,1,357,NaN,dog,boat,0,boat4-knife2.png,
shape_bias_gauss_4_for_30_epoch_to_gauss_0_for_30_lr_15_epoch5,1,358,NaN,dog,boat,0,boat5-airplane1.png,
shape_bias_gauss_4_for_30_epoch_to_gauss_0_for_30_lr_15_epoch5,1,359,NaN,dog,boat,0,boat5-bicycle3.png,
shape_bias_gauss_4_for_30_epoch_to_gauss_0_for_30_lr_15_epoch5,1,360,NaN,dog,boat,0,boat5-boat3.png,
shape_bias_gauss_4_for_30_epoch_to_gauss_0_for_30_lr_15_epoch5,1,361,NaN,dog,boat,0,boat5-car3.png,
shape_bias_gauss_4_for_30_epoch_to_gauss_0_for_30_lr_15_epoch5,1,362,NaN,dog,boat,0,boat5-clock3.png,
shape_bias_gauss_4_for_30_epoch_to_gauss_0_for_30_lr_15_epoch5,1,363,NaN,clock,boat,0,boat5-knife2.png,
shape_bias_gauss_4_for_30_epoch_to_gauss_0_for_30_lr_15_epoch5,1,364,NaN,dog,boat,0,boat6-airplane2.png,
shape_bias_gauss_4_for_30_epoch_to_gauss_0_for_30_lr_15_epoch5,1,365,NaN,dog,boat,0,boat6-bear1.png,
shape_bias_gauss_4_for_30_epoch_to_gauss_0_for_30_lr_15_epoch5,1,366,NaN,dog,boat,0,boat6-bicycle2.png,
shape_bias_gauss_4_for_30_epoch_to_gauss_0_for_30_lr_15_epoch5,1,367,NaN,dog,boat,0,boat6-bottle2.png,
shape_bias_gauss_4_for_30_epoch_to_gauss_0_for_30_lr_15_epoch5,1,368,NaN,dog,boat,0,boat6-car1.png,
shape_bias_gauss_4_for_30_epoch_to_gauss_0_for_30_lr_15_epoch5,1,369,NaN,dog,boat,0,boat6-cat1.png,
shape_bias_gauss_4_for_30_epoch_to_gauss_0_for_30_lr_15_epoch5,1,370,NaN,dog,boat,0,boat6-clock2.png,
shape_bias_gauss_4_for_30_epoch_to_gauss_0_for_30_lr_15_epoch5,1,371,NaN,dog,boat,0,boat6-dog1.png,
shape_bias_gauss_4_for_30_epoch_to_gauss_0_for_30_lr_15_epoch5,1,372,NaN,dog,boat,0,boat6-elephant2.png,
shape_bias_gauss_4_for_30_epoch_to_gauss_0_for_30_lr_15_epoch5,1,373,NaN,dog,boat,0,boat6-knife2.png,
shape_bias_gauss_4_for_30_epoch_to_gauss_0_for_30_lr_15_epoch5,1,374,NaN,dog,boat,0,boat6-truck3.png,
shape_bias_gauss_4_for_30_epoch_to_gauss_0_for_30_lr_15_epoch5,1,375,NaN,dog,boat,0,boat7-boat2.png,
shape_bias_gauss_4_for_30_epoch_to_gauss_0_for_30_lr_15_epoch5,1,376,NaN,dog,boat,0,boat7-bottle1.png,
shape_bias_gauss_4_for_30_epoch_to_gauss_0_for_30_lr_15_epoch5,1,377,NaN,dog,boat,0,boat7-cat3.png,
shape_bias_gauss_4_for_30_epoch_to_gauss_0_for_30_lr_15_epoch5,1,378,NaN,dog,boat,0,boat7-chair1.png,
shape_bias_gauss_4_for_30_epoch_to_gauss_0_for_30_lr_15_epoch5,1,379,NaN,dog,boat,0,boat7-clock3.png,
shape_bias_gauss_4_for_30_epoch_to_gauss_0_for_30_lr_15_epoch5,1,380,NaN,dog,boat,0,boat7-elephant3.png,
shape_bias_gauss_4_for_30_epoch_to_gauss_0_for_30_lr_15_epoch5,1,381,NaN,dog,boat,0,boat7-keyboard3.png,
shape_bias_gauss_4_for_30_epoch_to_gauss_0_for_30_lr_15_epoch5,1,382,NaN,dog,boat,0,boat7-oven3.png,
shape_bias_gauss_4_for_30_epoch_to_gauss_0_for_30_lr_15_epoch5,1,383,NaN,dog,boat,0,boat7-truck2.png,
shape_bias_gauss_4_for_30_epoch_to_gauss_0_for_30_lr_15_epoch5,1,384,NaN,dog,boat,0,boat8-bird2.png,
shape_bias_gauss_4_for_30_epoch_to_gauss_0_for_30_lr_15_epoch5,1,385,NaN,dog,boat,0,boat8-bottle1.png,
shape_bias_gauss_4_for_30_epoch_to_gauss_0_for_30_lr_15_epoch5,1,386,NaN,dog,boat,0,boat8-dog3.png,
shape_bias_gauss_4_for_30_epoch_to_gauss_0_for_30_lr_15_epoch5,1,387,NaN,clock,boat,0,boat8-elephant1.png,
shape_bias_gauss_4_for_30_epoch_to_gauss_0_for_30_lr_15_epoch5,1,388,NaN,dog,boat,0,boat8-knife1.png,
shape_bias_gauss_4_for_30_epoch_to_gauss_0_for_30_lr_15_epoch5,1,389,NaN,dog,boat,0,boat8-oven1.png,
shape_bias_gauss_4_for_30_epoch_to_gauss_0_for_30_lr_15_epoch5,1,390,NaN,dog,boat,0,boat8-truck2.png,
shape_bias_gauss_4_for_30_epoch_to_gauss_0_for_30_lr_15_epoch5,1,391,NaN,dog,boat,0,boat9-airplane2.png,
