subj,session,trial,rt,object_response,category,condition,imagename,
sup_RN50_gauss_0_for_90_epoch_epoch90,1,1,NaN,bicycle,airplane,0,airplane1-bicycle2.png,
sup_RN50_gauss_0_for_90_epoch_epoch90,1,2,NaN,knife,airplane,0,airplane1-chair2.png,
sup_RN50_gauss_0_for_90_epoch_epoch90,1,3,NaN,clock,airplane,0,airplane1-clock1.png,
sup_RN50_gauss_0_for_90_epoch_epoch90,1,4,NaN,elephant,airplane,0,airplane1-elephant1.png,
sup_RN50_gauss_0_for_90_epoch_epoch90,1,5,NaN,airplane,airplane,0,airplane10-airplane1.png,
sup_RN50_gauss_0_for_90_epoch_epoch90,1,6,NaN,bear,airplane,0,airplane10-bear3.png,
sup_RN50_gauss_0_for_90_epoch_epoch90,1,7,NaN,truck,airplane,0,airplane10-boat3.png,
sup_RN50_gauss_0_for_90_epoch_epoch90,1,8,NaN,car,airplane,0,airplane10-car3.png,
sup_RN50_gauss_0_for_90_epoch_epoch90,1,9,NaN,cat,airplane,0,airplane10-cat2.png,
sup_RN50_gauss_0_for_90_epoch_epoch90,1,10,NaN,dog,airplane,0,airplane10-dog3.png,
sup_RN50_gauss_0_for_90_epoch_epoch90,1,11,NaN,elephant,airplane,0,airplane10-elephant1.png,
sup_RN50_gauss_0_for_90_epoch_epoch90,1,12,NaN,knife,airplane,0,airplane10-knife3.png,
sup_RN50_gauss_0_for_90_epoch_epoch90,1,13,NaN,bottle,airplane,0,airplane10-oven2.png,
sup_RN50_gauss_0_for_90_epoch_epoch90,1,14,NaN,bottle,airplane,0,airplane10-truck1.png,
sup_RN50_gauss_0_for_90_epoch_epoch90,1,15,NaN,bear,airplane,0,airplane2-bear1.png,
sup_RN50_gauss_0_for_90_epoch_epoch90,1,16,NaN,bicycle,airplane,0,airplane2-bicycle1.png,
sup_RN50_gauss_0_for_90_epoch_epoch90,1,17,NaN,bird,airplane,0,airplane2-bird3.png,
sup_RN50_gauss_0_for_90_epoch_epoch90,1,18,NaN,bottle,airplane,0,airplane2-bottle1.png,
sup_RN50_gauss_0_for_90_epoch_epoch90,1,19,NaN,dog,airplane,0,airplane2-cat1.png,
sup_RN50_gauss_0_for_90_epoch_epoch90,1,20,NaN,cat,airplane,0,airplane2-dog1.png,
sup_RN50_gauss_0_for_90_epoch_epoch90,1,21,NaN,airplane,airplane,0,airplane3-airplane2.png,
sup_RN50_gauss_0_for_90_epoch_epoch90,1,22,NaN,boat,airplane,0,airplane3-car1.png,
sup_RN50_gauss_0_for_90_epoch_epoch90,1,23,NaN,cat,airplane,0,airplane3-cat1.png,
sup_RN50_gauss_0_for_90_epoch_epoch90,1,24,NaN,airplane,airplane,0,airplane3-chair3.png,
sup_RN50_gauss_0_for_90_epoch_epoch90,1,25,NaN,clock,airplane,0,airplane3-clock1.png,
sup_RN50_gauss_0_for_90_epoch_epoch90,1,26,NaN,bear,airplane,0,airplane3-dog1.png,
sup_RN50_gauss_0_for_90_epoch_epoch90,1,27,NaN,elephant,airplane,0,airplane3-elephant1.png,
sup_RN50_gauss_0_for_90_epoch_epoch90,1,28,NaN,keyboard,airplane,0,airplane3-keyboard2.png,
sup_RN50_gauss_0_for_90_epoch_epoch90,1,29,NaN,airplane,airplane,0,airplane3-oven1.png,
sup_RN50_gauss_0_for_90_epoch_epoch90,1,30,NaN,clock,airplane,0,airplane4-airplane1.png,
sup_RN50_gauss_0_for_90_epoch_epoch90,1,31,NaN,bear,airplane,0,airplane4-bear3.png,
sup_RN50_gauss_0_for_90_epoch_epoch90,1,32,NaN,bottle,airplane,0,airplane4-bicycle2.png,
sup_RN50_gauss_0_for_90_epoch_epoch90,1,33,NaN,bottle,airplane,0,airplane4-bird3.png,
sup_RN50_gauss_0_for_90_epoch_epoch90,1,34,NaN,bottle,airplane,0,airplane4-boat3.png,
sup_RN50_gauss_0_for_90_epoch_epoch90,1,35,NaN,bottle,airplane,0,airplane4-bottle1.png,
sup_RN50_gauss_0_for_90_epoch_epoch90,1,36,NaN,boat,airplane,0,airplane4-car1.png,
sup_RN50_gauss_0_for_90_epoch_epoch90,1,37,NaN,cat,airplane,0,airplane4-cat3.png,
sup_RN50_gauss_0_for_90_epoch_epoch90,1,38,NaN,dog,airplane,0,airplane4-dog2.png,
sup_RN50_gauss_0_for_90_epoch_epoch90,1,39,NaN,elephant,airplane,0,airplane4-elephant1.png,
sup_RN50_gauss_0_for_90_epoch_epoch90,1,40,NaN,bottle,airplane,0,airplane4-keyboard3.png,
sup_RN50_gauss_0_for_90_epoch_epoch90,1,41,NaN,bottle,airplane,0,airplane4-knife1.png,
sup_RN50_gauss_0_for_90_epoch_epoch90,1,42,NaN,truck,airplane,0,airplane4-truck2.png,
sup_RN50_gauss_0_for_90_epoch_epoch90,1,43,NaN,cat,airplane,0,airplane5-bear2.png,
sup_RN50_gauss_0_for_90_epoch_epoch90,1,44,NaN,bicycle,airplane,0,airplane5-bicycle1.png,
sup_RN50_gauss_0_for_90_epoch_epoch90,1,45,NaN,bird,airplane,0,airplane5-bird2.png,
sup_RN50_gauss_0_for_90_epoch_epoch90,1,46,NaN,airplane,airplane,0,airplane5-boat3.png,
sup_RN50_gauss_0_for_90_epoch_epoch90,1,47,NaN,bottle,airplane,0,airplane5-bottle3.png,
sup_RN50_gauss_0_for_90_epoch_epoch90,1,48,NaN,airplane,airplane,0,airplane5-chair3.png,
sup_RN50_gauss_0_for_90_epoch_epoch90,1,49,NaN,dog,airplane,0,airplane5-dog3.png,
sup_RN50_gauss_0_for_90_epoch_epoch90,1,50,NaN,knife,airplane,0,airplane5-knife1.png,
sup_RN50_gauss_0_for_90_epoch_epoch90,1,51,NaN,knife,airplane,0,airplane5-oven3.png,
sup_RN50_gauss_0_for_90_epoch_epoch90,1,52,NaN,bear,airplane,0,airplane6-bear3.png,
sup_RN50_gauss_0_for_90_epoch_epoch90,1,53,NaN,bottle,airplane,0,airplane6-bottle2.png,
sup_RN50_gauss_0_for_90_epoch_epoch90,1,54,NaN,airplane,airplane,0,airplane6-chair3.png,
sup_RN50_gauss_0_for_90_epoch_epoch90,1,55,NaN,knife,airplane,0,airplane6-keyboard3.png,
sup_RN50_gauss_0_for_90_epoch_epoch90,1,56,NaN,knife,airplane,0,airplane6-knife1.png,
sup_RN50_gauss_0_for_90_epoch_epoch90,1,57,NaN,airplane,airplane,0,airplane7-airplane3.png,
sup_RN50_gauss_0_for_90_epoch_epoch90,1,58,NaN,knife,airplane,0,airplane7-bird3.png,
sup_RN50_gauss_0_for_90_epoch_epoch90,1,59,NaN,boat,airplane,0,airplane7-boat2.png,
sup_RN50_gauss_0_for_90_epoch_epoch90,1,60,NaN,bottle,airplane,0,airplane7-bottle3.png,
sup_RN50_gauss_0_for_90_epoch_epoch90,1,61,NaN,boat,airplane,0,airplane7-car1.png,
sup_RN50_gauss_0_for_90_epoch_epoch90,1,62,NaN,cat,airplane,0,airplane7-cat3.png,
sup_RN50_gauss_0_for_90_epoch_epoch90,1,63,NaN,keyboard,airplane,0,airplane7-clock3.png,
sup_RN50_gauss_0_for_90_epoch_epoch90,1,64,NaN,keyboard,airplane,0,airplane7-keyboard1.png,
sup_RN50_gauss_0_for_90_epoch_epoch90,1,65,NaN,bottle,airplane,0,airplane7-truck1.png,
sup_RN50_gauss_0_for_90_epoch_epoch90,1,66,NaN,bottle,airplane,0,airplane8-bicycle3.png,
sup_RN50_gauss_0_for_90_epoch_epoch90,1,67,NaN,bottle,airplane,0,airplane8-bird1.png,
sup_RN50_gauss_0_for_90_epoch_epoch90,1,68,NaN,keyboard,airplane,0,airplane8-chair1.png,
sup_RN50_gauss_0_for_90_epoch_epoch90,1,69,NaN,clock,airplane,0,airplane8-clock2.png,
sup_RN50_gauss_0_for_90_epoch_epoch90,1,70,NaN,elephant,airplane,0,airplane8-elephant3.png,
sup_RN50_gauss_0_for_90_epoch_epoch90,1,71,NaN,bottle,airplane,0,airplane8-oven2.png,
sup_RN50_gauss_0_for_90_epoch_epoch90,1,72,NaN,keyboard,airplane,0,airplane8-truck3.png,
sup_RN50_gauss_0_for_90_epoch_epoch90,1,73,NaN,airplane,airplane,0,airplane9-airplane2.png,
sup_RN50_gauss_0_for_90_epoch_epoch90,1,74,NaN,boat,airplane,0,airplane9-boat1.png,
sup_RN50_gauss_0_for_90_epoch_epoch90,1,75,NaN,bottle,airplane,0,airplane9-car2.png,
sup_RN50_gauss_0_for_90_epoch_epoch90,1,76,NaN,clock,airplane,0,airplane9-clock1.png,
sup_RN50_gauss_0_for_90_epoch_epoch90,1,77,NaN,bottle,airplane,0,airplane9-keyboard2.png,
sup_RN50_gauss_0_for_90_epoch_epoch90,1,78,NaN,knife,airplane,0,airplane9-knife3.png,
sup_RN50_gauss_0_for_90_epoch_epoch90,1,79,NaN,oven,airplane,0,airplane9-oven2.png,
sup_RN50_gauss_0_for_90_epoch_epoch90,1,80,NaN,bottle,airplane,0,airplane9-truck1.png,
sup_RN50_gauss_0_for_90_epoch_epoch90,1,81,NaN,bottle,bear,0,bear1-airplane3.png,
sup_RN50_gauss_0_for_90_epoch_epoch90,1,82,NaN,bear,bear,0,bear1-bear3.png,
sup_RN50_gauss_0_for_90_epoch_epoch90,1,83,NaN,cat,bear,0,bear1-bicycle3.png,
sup_RN50_gauss_0_for_90_epoch_epoch90,1,84,NaN,cat,bear,0,bear1-bird2.png,
sup_RN50_gauss_0_for_90_epoch_epoch90,1,85,NaN,chair,bear,0,bear1-chair2.png,
sup_RN50_gauss_0_for_90_epoch_epoch90,1,86,NaN,clock,bear,0,bear1-clock2.png,
sup_RN50_gauss_0_for_90_epoch_epoch90,1,87,NaN,elephant,bear,0,bear1-elephant1.png,
sup_RN50_gauss_0_for_90_epoch_epoch90,1,88,NaN,bear,bear,0,bear10-bear2.png,
sup_RN50_gauss_0_for_90_epoch_epoch90,1,89,NaN,bottle,bear,0,bear10-bottle1.png,
sup_RN50_gauss_0_for_90_epoch_epoch90,1,90,NaN,boat,bear,0,bear10-car2.png,
sup_RN50_gauss_0_for_90_epoch_epoch90,1,91,NaN,cat,bear,0,bear10-cat2.png,
sup_RN50_gauss_0_for_90_epoch_epoch90,1,92,NaN,chair,bear,0,bear10-chair2.png,
sup_RN50_gauss_0_for_90_epoch_epoch90,1,93,NaN,clock,bear,0,bear10-clock1.png,
sup_RN50_gauss_0_for_90_epoch_epoch90,1,94,NaN,elephant,bear,0,bear10-elephant1.png,
sup_RN50_gauss_0_for_90_epoch_epoch90,1,95,NaN,keyboard,bear,0,bear10-keyboard3.png,
sup_RN50_gauss_0_for_90_epoch_epoch90,1,96,NaN,knife,bear,0,bear10-knife2.png,
sup_RN50_gauss_0_for_90_epoch_epoch90,1,97,NaN,knife,bear,0,bear10-oven1.png,
sup_RN50_gauss_0_for_90_epoch_epoch90,1,98,NaN,car,bear,0,bear10-truck1.png,
sup_RN50_gauss_0_for_90_epoch_epoch90,1,99,NaN,airplane,bear,0,bear2-airplane1.png,
sup_RN50_gauss_0_for_90_epoch_epoch90,1,100,NaN,bottle,bear,0,bear2-bird3.png,
sup_RN50_gauss_0_for_90_epoch_epoch90,1,101,NaN,boat,bear,0,bear2-car2.png,
sup_RN50_gauss_0_for_90_epoch_epoch90,1,102,NaN,cat,bear,0,bear2-cat2.png,
sup_RN50_gauss_0_for_90_epoch_epoch90,1,103,NaN,bear,bear,0,bear2-dog1.png,
sup_RN50_gauss_0_for_90_epoch_epoch90,1,104,NaN,elephant,bear,0,bear2-elephant1.png,
sup_RN50_gauss_0_for_90_epoch_epoch90,1,105,NaN,keyboard,bear,0,bear2-keyboard2.png,
sup_RN50_gauss_0_for_90_epoch_epoch90,1,106,NaN,knife,bear,0,bear2-knife2.png,
sup_RN50_gauss_0_for_90_epoch_epoch90,1,107,NaN,keyboard,bear,0,bear2-oven1.png,
sup_RN50_gauss_0_for_90_epoch_epoch90,1,108,NaN,airplane,bear,0,bear3-airplane1.png,
sup_RN50_gauss_0_for_90_epoch_epoch90,1,109,NaN,bicycle,bear,0,bear3-bicycle2.png,
sup_RN50_gauss_0_for_90_epoch_epoch90,1,110,NaN,bird,bear,0,bear3-bird3.png,
sup_RN50_gauss_0_for_90_epoch_epoch90,1,111,NaN,boat,bear,0,bear3-car2.png,
sup_RN50_gauss_0_for_90_epoch_epoch90,1,112,NaN,cat,bear,0,bear3-cat1.png,
sup_RN50_gauss_0_for_90_epoch_epoch90,1,113,NaN,chair,bear,0,bear3-chair2.png,
sup_RN50_gauss_0_for_90_epoch_epoch90,1,114,NaN,dog,bear,0,bear3-dog3.png,
sup_RN50_gauss_0_for_90_epoch_epoch90,1,115,NaN,bottle,bear,0,bear3-keyboard2.png,
sup_RN50_gauss_0_for_90_epoch_epoch90,1,116,NaN,clock,bear,0,bear3-truck3.png,
sup_RN50_gauss_0_for_90_epoch_epoch90,1,117,NaN,boat,bear,0,bear4-boat2.png,
sup_RN50_gauss_0_for_90_epoch_epoch90,1,118,NaN,car,bear,0,bear4-car3.png,
sup_RN50_gauss_0_for_90_epoch_epoch90,1,119,NaN,dog,bear,0,bear4-cat3.png,
sup_RN50_gauss_0_for_90_epoch_epoch90,1,120,NaN,clock,bear,0,bear4-clock3.png,
sup_RN50_gauss_0_for_90_epoch_epoch90,1,121,NaN,elephant,bear,0,bear4-elephant2.png,
sup_RN50_gauss_0_for_90_epoch_epoch90,1,122,NaN,bottle,bear,0,bear4-keyboard3.png,
sup_RN50_gauss_0_for_90_epoch_epoch90,1,123,NaN,knife,bear,0,bear4-knife1.png,
sup_RN50_gauss_0_for_90_epoch_epoch90,1,124,NaN,chair,bear,0,bear4-oven2.png,
sup_RN50_gauss_0_for_90_epoch_epoch90,1,125,NaN,car,bear,0,bear4-truck3.png,
sup_RN50_gauss_0_for_90_epoch_epoch90,1,126,NaN,bicycle,bear,0,bear5-airplane3.png,
sup_RN50_gauss_0_for_90_epoch_epoch90,1,127,NaN,knife,bear,0,bear5-bicycle3.png,
sup_RN50_gauss_0_for_90_epoch_epoch90,1,128,NaN,bottle,bear,0,bear5-bird1.png,
sup_RN50_gauss_0_for_90_epoch_epoch90,1,129,NaN,boat,bear,0,bear5-boat2.png,
sup_RN50_gauss_0_for_90_epoch_epoch90,1,130,NaN,bottle,bear,0,bear5-bottle1.png,
sup_RN50_gauss_0_for_90_epoch_epoch90,1,131,NaN,car,bear,0,bear5-chair1.png,
sup_RN50_gauss_0_for_90_epoch_epoch90,1,132,NaN,knife,bear,0,bear5-oven3.png,
sup_RN50_gauss_0_for_90_epoch_epoch90,1,133,NaN,bear,bear,0,bear6-bear1.png,
sup_RN50_gauss_0_for_90_epoch_epoch90,1,134,NaN,bird,bear,0,bear6-bird2.png,
sup_RN50_gauss_0_for_90_epoch_epoch90,1,135,NaN,clock,bear,0,bear6-boat3.png,
sup_RN50_gauss_0_for_90_epoch_epoch90,1,136,NaN,bottle,bear,0,bear6-bottle3.png,
sup_RN50_gauss_0_for_90_epoch_epoch90,1,137,NaN,bottle,bear,0,bear6-car2.png,
sup_RN50_gauss_0_for_90_epoch_epoch90,1,138,NaN,cat,bear,0,bear6-cat3.png,
sup_RN50_gauss_0_for_90_epoch_epoch90,1,139,NaN,car,bear,0,bear6-chair1.png,
sup_RN50_gauss_0_for_90_epoch_epoch90,1,140,NaN,clock,bear,0,bear6-clock1.png,
sup_RN50_gauss_0_for_90_epoch_epoch90,1,141,NaN,bear,bear,0,bear7-bear2.png,
sup_RN50_gauss_0_for_90_epoch_epoch90,1,142,NaN,bicycle,bear,0,bear7-bicycle2.png,
sup_RN50_gauss_0_for_90_epoch_epoch90,1,143,NaN,clock,bear,0,bear7-clock1.png,
sup_RN50_gauss_0_for_90_epoch_epoch90,1,144,NaN,bear,bear,0,bear7-dog3.png,
sup_RN50_gauss_0_for_90_epoch_epoch90,1,145,NaN,truck,bear,0,bear7-oven3.png,
sup_RN50_gauss_0_for_90_epoch_epoch90,1,146,NaN,bottle,bear,0,bear7-truck1.png,
sup_RN50_gauss_0_for_90_epoch_epoch90,1,147,NaN,airplane,bear,0,bear8-airplane1.png,
sup_RN50_gauss_0_for_90_epoch_epoch90,1,148,NaN,bear,bear,0,bear8-bear1.png,
sup_RN50_gauss_0_for_90_epoch_epoch90,1,149,NaN,knife,bear,0,bear8-bicycle3.png,
sup_RN50_gauss_0_for_90_epoch_epoch90,1,150,NaN,boat,bear,0,bear8-boat2.png,
sup_RN50_gauss_0_for_90_epoch_epoch90,1,151,NaN,bottle,bear,0,bear8-bottle1.png,
sup_RN50_gauss_0_for_90_epoch_epoch90,1,152,NaN,bear,bear,0,bear8-dog1.png,
sup_RN50_gauss_0_for_90_epoch_epoch90,1,153,NaN,elephant,bear,0,bear8-elephant2.png,
sup_RN50_gauss_0_for_90_epoch_epoch90,1,154,NaN,bird,bear,0,bear8-knife3.png,
sup_RN50_gauss_0_for_90_epoch_epoch90,1,155,NaN,truck,bear,0,bear8-truck3.png,
sup_RN50_gauss_0_for_90_epoch_epoch90,1,156,NaN,boat,bear,0,bear9-boat2.png,
sup_RN50_gauss_0_for_90_epoch_epoch90,1,157,NaN,bottle,bear,0,bear9-bottle2.png,
sup_RN50_gauss_0_for_90_epoch_epoch90,1,158,NaN,bear,bear,0,bear9-dog1.png,
sup_RN50_gauss_0_for_90_epoch_epoch90,1,159,NaN,keyboard,bear,0,bear9-keyboard3.png,
sup_RN50_gauss_0_for_90_epoch_epoch90,1,160,NaN,knife,bear,0,bear9-knife2.png,
sup_RN50_gauss_0_for_90_epoch_epoch90,1,161,NaN,car,bicycle,0,bicycle1-airplane2.png,
sup_RN50_gauss_0_for_90_epoch_epoch90,1,162,NaN,bear,bicycle,0,bicycle1-bear1.png,
sup_RN50_gauss_0_for_90_epoch_epoch90,1,163,NaN,bicycle,bicycle,0,bicycle1-bicycle3.png,
sup_RN50_gauss_0_for_90_epoch_epoch90,1,164,NaN,bottle,bicycle,0,bicycle1-bird1.png,
sup_RN50_gauss_0_for_90_epoch_epoch90,1,165,NaN,car,bicycle,0,bicycle1-boat3.png,
sup_RN50_gauss_0_for_90_epoch_epoch90,1,166,NaN,clock,bicycle,0,bicycle1-bottle3.png,
sup_RN50_gauss_0_for_90_epoch_epoch90,1,167,NaN,car,bicycle,0,bicycle1-chair1.png,
sup_RN50_gauss_0_for_90_epoch_epoch90,1,168,NaN,clock,bicycle,0,bicycle1-clock3.png,
sup_RN50_gauss_0_for_90_epoch_epoch90,1,169,NaN,dog,bicycle,0,bicycle1-dog3.png,
sup_RN50_gauss_0_for_90_epoch_epoch90,1,170,NaN,elephant,bicycle,0,bicycle1-elephant2.png,
sup_RN50_gauss_0_for_90_epoch_epoch90,1,171,NaN,knife,bicycle,0,bicycle1-knife3.png,
sup_RN50_gauss_0_for_90_epoch_epoch90,1,172,NaN,bottle,bicycle,0,bicycle1-oven1.png,
sup_RN50_gauss_0_for_90_epoch_epoch90,1,173,NaN,bottle,bicycle,0,bicycle1-truck1.png,
sup_RN50_gauss_0_for_90_epoch_epoch90,1,174,NaN,car,bicycle,0,bicycle10-airplane2.png,
sup_RN50_gauss_0_for_90_epoch_epoch90,1,175,NaN,truck,bicycle,0,bicycle10-boat3.png,
sup_RN50_gauss_0_for_90_epoch_epoch90,1,176,NaN,clock,bicycle,0,bicycle10-clock2.png,
sup_RN50_gauss_0_for_90_epoch_epoch90,1,177,NaN,dog,bicycle,0,bicycle10-dog3.png,
sup_RN50_gauss_0_for_90_epoch_epoch90,1,178,NaN,elephant,bicycle,0,bicycle10-elephant2.png,
sup_RN50_gauss_0_for_90_epoch_epoch90,1,179,NaN,bicycle,bicycle,0,bicycle2-bicycle1.png,
sup_RN50_gauss_0_for_90_epoch_epoch90,1,180,NaN,bottle,bicycle,0,bicycle2-bird3.png,
sup_RN50_gauss_0_for_90_epoch_epoch90,1,181,NaN,bottle,bicycle,0,bicycle2-bottle1.png,
sup_RN50_gauss_0_for_90_epoch_epoch90,1,182,NaN,boat,bicycle,0,bicycle2-car2.png,
sup_RN50_gauss_0_for_90_epoch_epoch90,1,183,NaN,dog,bicycle,0,bicycle2-dog1.png,
sup_RN50_gauss_0_for_90_epoch_epoch90,1,184,NaN,bottle,bicycle,0,bicycle2-keyboard2.png,
sup_RN50_gauss_0_for_90_epoch_epoch90,1,185,NaN,knife,bicycle,0,bicycle2-knife2.png,
sup_RN50_gauss_0_for_90_epoch_epoch90,1,186,NaN,bird,bicycle,0,bicycle3-bird1.png,
sup_RN50_gauss_0_for_90_epoch_epoch90,1,187,NaN,elephant,bicycle,0,bicycle3-elephant2.png,
sup_RN50_gauss_0_for_90_epoch_epoch90,1,188,NaN,bicycle,bicycle,0,bicycle3-keyboard1.png,
sup_RN50_gauss_0_for_90_epoch_epoch90,1,189,NaN,knife,bicycle,0,bicycle3-oven3.png,
sup_RN50_gauss_0_for_90_epoch_epoch90,1,190,NaN,truck,bicycle,0,bicycle3-truck3.png,
sup_RN50_gauss_0_for_90_epoch_epoch90,1,191,NaN,clock,bicycle,0,bicycle4-airplane1.png,
sup_RN50_gauss_0_for_90_epoch_epoch90,1,192,NaN,bicycle,bicycle,0,bicycle4-bicycle3.png,
sup_RN50_gauss_0_for_90_epoch_epoch90,1,193,NaN,clock,bicycle,0,bicycle4-boat1.png,
sup_RN50_gauss_0_for_90_epoch_epoch90,1,194,NaN,clock,bicycle,0,bicycle4-bottle1.png,
sup_RN50_gauss_0_for_90_epoch_epoch90,1,195,NaN,bicycle,bicycle,0,bicycle4-car2.png,
sup_RN50_gauss_0_for_90_epoch_epoch90,1,196,NaN,cat,bicycle,0,bicycle4-cat1.png,
sup_RN50_gauss_0_for_90_epoch_epoch90,1,197,NaN,chair,bicycle,0,bicycle4-chair2.png,
sup_RN50_gauss_0_for_90_epoch_epoch90,1,198,NaN,clock,bicycle,0,bicycle4-clock3.png,
sup_RN50_gauss_0_for_90_epoch_epoch90,1,199,NaN,clock,bicycle,0,bicycle4-keyboard3.png,
sup_RN50_gauss_0_for_90_epoch_epoch90,1,200,NaN,knife,bicycle,0,bicycle4-knife3.png,
sup_RN50_gauss_0_for_90_epoch_epoch90,1,201,NaN,airplane,bicycle,0,bicycle4-oven3.png,
sup_RN50_gauss_0_for_90_epoch_epoch90,1,202,NaN,truck,bicycle,0,bicycle4-truck3.png,
sup_RN50_gauss_0_for_90_epoch_epoch90,1,203,NaN,elephant,bicycle,0,bicycle5-bear1.png,
sup_RN50_gauss_0_for_90_epoch_epoch90,1,204,NaN,clock,bicycle,0,bicycle5-bottle3.png,
sup_RN50_gauss_0_for_90_epoch_epoch90,1,205,NaN,bicycle,bicycle,0,bicycle5-car3.png,
sup_RN50_gauss_0_for_90_epoch_epoch90,1,206,NaN,dog,bicycle,0,bicycle5-cat1.png,
sup_RN50_gauss_0_for_90_epoch_epoch90,1,207,NaN,boat,bicycle,0,bicycle5-chair2.png,
sup_RN50_gauss_0_for_90_epoch_epoch90,1,208,NaN,dog,bicycle,0,bicycle5-dog2.png,
sup_RN50_gauss_0_for_90_epoch_epoch90,1,209,NaN,elephant,bicycle,0,bicycle5-elephant1.png,
sup_RN50_gauss_0_for_90_epoch_epoch90,1,210,NaN,bottle,bicycle,0,bicycle5-keyboard3.png,
sup_RN50_gauss_0_for_90_epoch_epoch90,1,211,NaN,knife,bicycle,0,bicycle5-oven3.png,
sup_RN50_gauss_0_for_90_epoch_epoch90,1,212,NaN,boat,bicycle,0,bicycle6-airplane2.png,
sup_RN50_gauss_0_for_90_epoch_epoch90,1,213,NaN,knife,bicycle,0,bicycle6-bicycle3.png,
sup_RN50_gauss_0_for_90_epoch_epoch90,1,214,NaN,bicycle,bicycle,0,bicycle6-boat2.png,
sup_RN50_gauss_0_for_90_epoch_epoch90,1,215,NaN,bottle,bicycle,0,bicycle6-car2.png,
sup_RN50_gauss_0_for_90_epoch_epoch90,1,216,NaN,dog,bicycle,0,bicycle6-cat1.png,
sup_RN50_gauss_0_for_90_epoch_epoch90,1,217,NaN,dog,bicycle,0,bicycle6-dog2.png,
sup_RN50_gauss_0_for_90_epoch_epoch90,1,218,NaN,elephant,bicycle,0,bicycle7-bear2.png,
sup_RN50_gauss_0_for_90_epoch_epoch90,1,219,NaN,bicycle,bicycle,0,bicycle7-bicycle2.png,
sup_RN50_gauss_0_for_90_epoch_epoch90,1,220,NaN,dog,bicycle,0,bicycle7-cat1.png,
sup_RN50_gauss_0_for_90_epoch_epoch90,1,221,NaN,clock,bicycle,0,bicycle7-clock3.png,
sup_RN50_gauss_0_for_90_epoch_epoch90,1,222,NaN,elephant,bicycle,0,bicycle7-elephant2.png,
sup_RN50_gauss_0_for_90_epoch_epoch90,1,223,NaN,knife,bicycle,0,bicycle7-knife2.png,
sup_RN50_gauss_0_for_90_epoch_epoch90,1,224,NaN,bottle,bicycle,0,bicycle7-oven1.png,
sup_RN50_gauss_0_for_90_epoch_epoch90,1,225,NaN,bottle,bicycle,0,bicycle7-truck3.png,
sup_RN50_gauss_0_for_90_epoch_epoch90,1,226,NaN,cat,bicycle,0,bicycle8-bear2.png,
sup_RN50_gauss_0_for_90_epoch_epoch90,1,227,NaN,bicycle,bicycle,0,bicycle8-bird2.png,
sup_RN50_gauss_0_for_90_epoch_epoch90,1,228,NaN,bicycle,bicycle,0,bicycle8-boat1.png,
sup_RN50_gauss_0_for_90_epoch_epoch90,1,229,NaN,chair,bicycle,0,bicycle8-chair2.png,
sup_RN50_gauss_0_for_90_epoch_epoch90,1,230,NaN,clock,bicycle,0,bicycle8-clock3.png,
sup_RN50_gauss_0_for_90_epoch_epoch90,1,231,NaN,bottle,bicycle,0,bicycle8-truck1.png,
sup_RN50_gauss_0_for_90_epoch_epoch90,1,232,NaN,car,bicycle,0,bicycle9-airplane2.png,
sup_RN50_gauss_0_for_90_epoch_epoch90,1,233,NaN,cat,bicycle,0,bicycle9-bear1.png,
sup_RN50_gauss_0_for_90_epoch_epoch90,1,234,NaN,bicycle,bicycle,0,bicycle9-bird3.png,
sup_RN50_gauss_0_for_90_epoch_epoch90,1,235,NaN,bottle,bicycle,0,bicycle9-bottle1.png,
sup_RN50_gauss_0_for_90_epoch_epoch90,1,236,NaN,boat,bicycle,0,bicycle9-car1.png,
sup_RN50_gauss_0_for_90_epoch_epoch90,1,237,NaN,cat,bicycle,0,bicycle9-cat3.png,
sup_RN50_gauss_0_for_90_epoch_epoch90,1,238,NaN,car,bicycle,0,bicycle9-chair1.png,
sup_RN50_gauss_0_for_90_epoch_epoch90,1,239,NaN,keyboard,bicycle,0,bicycle9-keyboard3.png,
sup_RN50_gauss_0_for_90_epoch_epoch90,1,240,NaN,knife,bicycle,0,bicycle9-knife3.png,
sup_RN50_gauss_0_for_90_epoch_epoch90,1,241,NaN,bird,bird,0,bird1-airplane2.png,
sup_RN50_gauss_0_for_90_epoch_epoch90,1,242,NaN,bear,bird,0,bird1-bear1.png,
sup_RN50_gauss_0_for_90_epoch_epoch90,1,243,NaN,bicycle,bird,0,bird1-bicycle2.png,
sup_RN50_gauss_0_for_90_epoch_epoch90,1,244,NaN,boat,bird,0,bird1-boat1.png,
sup_RN50_gauss_0_for_90_epoch_epoch90,1,245,NaN,chair,bird,0,bird1-chair2.png,
sup_RN50_gauss_0_for_90_epoch_epoch90,1,246,NaN,clock,bird,0,bird1-clock3.png,
sup_RN50_gauss_0_for_90_epoch_epoch90,1,247,NaN,elephant,bird,0,bird1-elephant2.png,
sup_RN50_gauss_0_for_90_epoch_epoch90,1,248,NaN,bottle,bird,0,bird1-keyboard3.png,
sup_RN50_gauss_0_for_90_epoch_epoch90,1,249,NaN,bottle,bird,0,bird1-knife3.png,
sup_RN50_gauss_0_for_90_epoch_epoch90,1,250,NaN,oven,bird,0,bird1-oven1.png,
sup_RN50_gauss_0_for_90_epoch_epoch90,1,251,NaN,bottle,bird,0,bird1-truck1.png,
sup_RN50_gauss_0_for_90_epoch_epoch90,1,252,NaN,bear,bird,0,bird10-bear2.png,
sup_RN50_gauss_0_for_90_epoch_epoch90,1,253,NaN,bicycle,bird,0,bird10-bicycle1.png,
sup_RN50_gauss_0_for_90_epoch_epoch90,1,254,NaN,bird,bird,0,bird10-bird2.png,
sup_RN50_gauss_0_for_90_epoch_epoch90,1,255,NaN,dog,bird,0,bird10-cat1.png,
sup_RN50_gauss_0_for_90_epoch_epoch90,1,256,NaN,car,bird,0,bird10-chair1.png,
sup_RN50_gauss_0_for_90_epoch_epoch90,1,257,NaN,clock,bird,0,bird10-clock1.png,
sup_RN50_gauss_0_for_90_epoch_epoch90,1,258,NaN,elephant,bird,0,bird10-elephant2.png,
sup_RN50_gauss_0_for_90_epoch_epoch90,1,259,NaN,airplane,bird,0,bird2-airplane3.png,
sup_RN50_gauss_0_for_90_epoch_epoch90,1,260,NaN,bird,bird,0,bird2-bird2.png,
sup_RN50_gauss_0_for_90_epoch_epoch90,1,261,NaN,car,bird,0,bird2-car3.png,
sup_RN50_gauss_0_for_90_epoch_epoch90,1,262,NaN,clock,bird,0,bird2-clock3.png,
sup_RN50_gauss_0_for_90_epoch_epoch90,1,263,NaN,dog,bird,0,bird2-dog2.png,
sup_RN50_gauss_0_for_90_epoch_epoch90,1,264,NaN,knife,bird,0,bird2-knife1.png,
sup_RN50_gauss_0_for_90_epoch_epoch90,1,265,NaN,bear,bird,0,bird3-bear3.png,
sup_RN50_gauss_0_for_90_epoch_epoch90,1,266,NaN,bird,bird,0,bird3-bird2.png,
sup_RN50_gauss_0_for_90_epoch_epoch90,1,267,NaN,truck,bird,0,bird3-boat3.png,
sup_RN50_gauss_0_for_90_epoch_epoch90,1,268,NaN,bottle,bird,0,bird3-bottle2.png,
sup_RN50_gauss_0_for_90_epoch_epoch90,1,269,NaN,cat,bird,0,bird3-cat1.png,
sup_RN50_gauss_0_for_90_epoch_epoch90,1,270,NaN,dog,bird,0,bird3-dog1.png,
sup_RN50_gauss_0_for_90_epoch_epoch90,1,271,NaN,knife,bird,0,bird3-knife3.png,
sup_RN50_gauss_0_for_90_epoch_epoch90,1,272,NaN,knife,bird,0,bird3-oven1.png,
sup_RN50_gauss_0_for_90_epoch_epoch90,1,273,NaN,bottle,bird,0,bird3-truck3.png,
sup_RN50_gauss_0_for_90_epoch_epoch90,1,274,NaN,airplane,bird,0,bird4-airplane1.png,
sup_RN50_gauss_0_for_90_epoch_epoch90,1,275,NaN,bicycle,bird,0,bird4-bicycle2.png,
sup_RN50_gauss_0_for_90_epoch_epoch90,1,276,NaN,cat,bird,0,bird4-cat3.png,
sup_RN50_gauss_0_for_90_epoch_epoch90,1,277,NaN,clock,bird,0,bird4-clock1.png,
sup_RN50_gauss_0_for_90_epoch_epoch90,1,278,NaN,dog,bird,0,bird4-dog3.png,
sup_RN50_gauss_0_for_90_epoch_epoch90,1,279,NaN,car,bird,0,bird5-airplane3.png,
sup_RN50_gauss_0_for_90_epoch_epoch90,1,280,NaN,bear,bird,0,bird5-bear3.png,
sup_RN50_gauss_0_for_90_epoch_epoch90,1,281,NaN,bicycle,bird,0,bird5-bicycle1.png,
sup_RN50_gauss_0_for_90_epoch_epoch90,1,282,NaN,bird,bird,0,bird5-bird1.png,
sup_RN50_gauss_0_for_90_epoch_epoch90,1,283,NaN,boat,bird,0,bird5-car2.png,
sup_RN50_gauss_0_for_90_epoch_epoch90,1,284,NaN,cat,bird,0,bird5-cat2.png,
sup_RN50_gauss_0_for_90_epoch_epoch90,1,285,NaN,keyboard,bird,0,bird5-chair1.png,
sup_RN50_gauss_0_for_90_epoch_epoch90,1,286,NaN,dog,bird,0,bird5-dog2.png,
sup_RN50_gauss_0_for_90_epoch_epoch90,1,287,NaN,knife,bird,0,bird5-keyboard2.png,
sup_RN50_gauss_0_for_90_epoch_epoch90,1,288,NaN,truck,bird,0,bird5-oven3.png,
sup_RN50_gauss_0_for_90_epoch_epoch90,1,289,NaN,truck,bird,0,bird5-truck2.png,
sup_RN50_gauss_0_for_90_epoch_epoch90,1,290,NaN,boat,bird,0,bird6-airplane2.png,
sup_RN50_gauss_0_for_90_epoch_epoch90,1,291,NaN,boat,bird,0,bird6-boat2.png,
sup_RN50_gauss_0_for_90_epoch_epoch90,1,292,NaN,bottle,bird,0,bird6-bottle3.png,
sup_RN50_gauss_0_for_90_epoch_epoch90,1,293,NaN,car,bird,0,bird6-car3.png,
sup_RN50_gauss_0_for_90_epoch_epoch90,1,294,NaN,elephant,bird,0,bird6-elephant2.png,
sup_RN50_gauss_0_for_90_epoch_epoch90,1,295,NaN,knife,bird,0,bird6-oven1.png,
sup_RN50_gauss_0_for_90_epoch_epoch90,1,296,NaN,car,bird,0,bird6-truck2.png,
sup_RN50_gauss_0_for_90_epoch_epoch90,1,297,NaN,bird,bird,0,bird7-bird2.png,
sup_RN50_gauss_0_for_90_epoch_epoch90,1,298,NaN,airplane,bird,0,bird7-boat1.png,
sup_RN50_gauss_0_for_90_epoch_epoch90,1,299,NaN,bottle,bird,0,bird7-bottle1.png,
sup_RN50_gauss_0_for_90_epoch_epoch90,1,300,NaN,bottle,bird,0,bird7-car2.png,
sup_RN50_gauss_0_for_90_epoch_epoch90,1,301,NaN,elephant,bird,0,bird7-cat3.png,
sup_RN50_gauss_0_for_90_epoch_epoch90,1,302,NaN,clock,bird,0,bird7-keyboard3.png,
sup_RN50_gauss_0_for_90_epoch_epoch90,1,303,NaN,knife,bird,0,bird7-knife2.png,
sup_RN50_gauss_0_for_90_epoch_epoch90,1,304,NaN,knife,bird,0,bird7-oven3.png,
sup_RN50_gauss_0_for_90_epoch_epoch90,1,305,NaN,bottle,bird,0,bird7-truck2.png,
sup_RN50_gauss_0_for_90_epoch_epoch90,1,306,NaN,boat,bird,0,bird8-boat3.png,
sup_RN50_gauss_0_for_90_epoch_epoch90,1,307,NaN,bottle,bird,0,bird8-bottle1.png,
sup_RN50_gauss_0_for_90_epoch_epoch90,1,308,NaN,bottle,bird,0,bird8-car2.png,
sup_RN50_gauss_0_for_90_epoch_epoch90,1,309,NaN,car,bird,0,bird8-chair1.png,
sup_RN50_gauss_0_for_90_epoch_epoch90,1,310,NaN,clock,bird,0,bird8-clock1.png,
sup_RN50_gauss_0_for_90_epoch_epoch90,1,311,NaN,elephant,bird,0,bird8-elephant1.png,
sup_RN50_gauss_0_for_90_epoch_epoch90,1,312,NaN,bottle,bird,0,bird8-keyboard2.png,
sup_RN50_gauss_0_for_90_epoch_epoch90,1,313,NaN,knife,bird,0,bird8-knife2.png,
sup_RN50_gauss_0_for_90_epoch_epoch90,1,314,NaN,bear,bird,0,bird9-bear3.png,
sup_RN50_gauss_0_for_90_epoch_epoch90,1,315,NaN,bottle,bird,0,bird9-bicycle3.png,
sup_RN50_gauss_0_for_90_epoch_epoch90,1,316,NaN,bottle,bird,0,bird9-bottle3.png,
sup_RN50_gauss_0_for_90_epoch_epoch90,1,317,NaN,car,bird,0,bird9-chair1.png,
sup_RN50_gauss_0_for_90_epoch_epoch90,1,318,NaN,dog,bird,0,bird9-dog2.png,
sup_RN50_gauss_0_for_90_epoch_epoch90,1,319,NaN,elephant,bird,0,bird9-elephant2.png,
sup_RN50_gauss_0_for_90_epoch_epoch90,1,320,NaN,bottle,bird,0,bird9-keyboard1.png,
sup_RN50_gauss_0_for_90_epoch_epoch90,1,321,NaN,bear,boat,0,boat1-bear1.png,
sup_RN50_gauss_0_for_90_epoch_epoch90,1,322,NaN,bottle,boat,0,boat1-bicycle2.png,
sup_RN50_gauss_0_for_90_epoch_epoch90,1,323,NaN,bird,boat,0,boat1-bird3.png,
sup_RN50_gauss_0_for_90_epoch_epoch90,1,324,NaN,car,boat,0,boat1-car2.png,
sup_RN50_gauss_0_for_90_epoch_epoch90,1,325,NaN,chair,boat,0,boat1-chair3.png,
sup_RN50_gauss_0_for_90_epoch_epoch90,1,326,NaN,elephant,boat,0,boat1-elephant3.png,
sup_RN50_gauss_0_for_90_epoch_epoch90,1,327,NaN,knife,boat,0,boat1-keyboard3.png,
sup_RN50_gauss_0_for_90_epoch_epoch90,1,328,NaN,keyboard,boat,0,boat1-oven1.png,
sup_RN50_gauss_0_for_90_epoch_epoch90,1,329,NaN,car,boat,0,boat1-truck3.png,
sup_RN50_gauss_0_for_90_epoch_epoch90,1,330,NaN,bear,boat,0,boat10-bear3.png,
sup_RN50_gauss_0_for_90_epoch_epoch90,1,331,NaN,car,boat,0,boat10-boat3.png,
sup_RN50_gauss_0_for_90_epoch_epoch90,1,332,NaN,dog,boat,0,boat10-cat1.png,
sup_RN50_gauss_0_for_90_epoch_epoch90,1,333,NaN,car,boat,0,boat10-oven1.png,
sup_RN50_gauss_0_for_90_epoch_epoch90,1,334,NaN,car,boat,0,boat10-truck1.png,
sup_RN50_gauss_0_for_90_epoch_epoch90,1,335,NaN,clock,boat,0,boat2-airplane1.png,
sup_RN50_gauss_0_for_90_epoch_epoch90,1,336,NaN,bear,boat,0,boat2-bear3.png,
sup_RN50_gauss_0_for_90_epoch_epoch90,1,337,NaN,bird,boat,0,boat2-bird1.png,
sup_RN50_gauss_0_for_90_epoch_epoch90,1,338,NaN,bottle,boat,0,boat2-bottle2.png,
sup_RN50_gauss_0_for_90_epoch_epoch90,1,339,NaN,bottle,boat,0,boat2-keyboard1.png,
sup_RN50_gauss_0_for_90_epoch_epoch90,1,340,NaN,oven,boat,0,boat2-oven3.png,
sup_RN50_gauss_0_for_90_epoch_epoch90,1,341,NaN,car,boat,0,boat3-airplane2.png,
sup_RN50_gauss_0_for_90_epoch_epoch90,1,342,NaN,bottle,boat,0,boat3-bicycle2.png,
sup_RN50_gauss_0_for_90_epoch_epoch90,1,343,NaN,car,boat,0,boat3-car3.png,
sup_RN50_gauss_0_for_90_epoch_epoch90,1,344,NaN,cat,boat,0,boat3-cat3.png,
sup_RN50_gauss_0_for_90_epoch_epoch90,1,345,NaN,airplane,boat,0,boat3-chair3.png,
sup_RN50_gauss_0_for_90_epoch_epoch90,1,346,NaN,clock,boat,0,boat3-clock3.png,
sup_RN50_gauss_0_for_90_epoch_epoch90,1,347,NaN,dog,boat,0,boat3-dog3.png,
sup_RN50_gauss_0_for_90_epoch_epoch90,1,348,NaN,car,boat,0,boat3-keyboard2.png,
sup_RN50_gauss_0_for_90_epoch_epoch90,1,349,NaN,knife,boat,0,boat4-bicycle3.png,
sup_RN50_gauss_0_for_90_epoch_epoch90,1,350,NaN,bird,boat,0,boat4-bird1.png,
sup_RN50_gauss_0_for_90_epoch_epoch90,1,351,NaN,bottle,boat,0,boat4-boat3.png,
sup_RN50_gauss_0_for_90_epoch_epoch90,1,352,NaN,bottle,boat,0,boat4-bottle2.png,
sup_RN50_gauss_0_for_90_epoch_epoch90,1,353,NaN,car,boat,0,boat4-car3.png,
sup_RN50_gauss_0_for_90_epoch_epoch90,1,354,NaN,chair,boat,0,boat4-chair2.png,
sup_RN50_gauss_0_for_90_epoch_epoch90,1,355,NaN,dog,boat,0,boat4-dog2.png,
sup_RN50_gauss_0_for_90_epoch_epoch90,1,356,NaN,elephant,boat,0,boat4-elephant2.png,
sup_RN50_gauss_0_for_90_epoch_epoch90,1,357,NaN,knife,boat,0,boat4-knife2.png,
sup_RN50_gauss_0_for_90_epoch_epoch90,1,358,NaN,knife,boat,0,boat5-airplane1.png,
sup_RN50_gauss_0_for_90_epoch_epoch90,1,359,NaN,bird,boat,0,boat5-bicycle3.png,
sup_RN50_gauss_0_for_90_epoch_epoch90,1,360,NaN,clock,boat,0,boat5-boat3.png,
sup_RN50_gauss_0_for_90_epoch_epoch90,1,361,NaN,car,boat,0,boat5-car3.png,
sup_RN50_gauss_0_for_90_epoch_epoch90,1,362,NaN,clock,boat,0,boat5-clock3.png,
sup_RN50_gauss_0_for_90_epoch_epoch90,1,363,NaN,oven,boat,0,boat5-knife2.png,
sup_RN50_gauss_0_for_90_epoch_epoch90,1,364,NaN,car,boat,0,boat6-airplane2.png,
sup_RN50_gauss_0_for_90_epoch_epoch90,1,365,NaN,bear,boat,0,boat6-bear1.png,
sup_RN50_gauss_0_for_90_epoch_epoch90,1,366,NaN,bicycle,boat,0,boat6-bicycle2.png,
sup_RN50_gauss_0_for_90_epoch_epoch90,1,367,NaN,bottle,boat,0,boat6-bottle2.png,
sup_RN50_gauss_0_for_90_epoch_epoch90,1,368,NaN,boat,boat,0,boat6-car1.png,
sup_RN50_gauss_0_for_90_epoch_epoch90,1,369,NaN,dog,boat,0,boat6-cat1.png,
sup_RN50_gauss_0_for_90_epoch_epoch90,1,370,NaN,clock,boat,0,boat6-clock2.png,
sup_RN50_gauss_0_for_90_epoch_epoch90,1,371,NaN,dog,boat,0,boat6-dog1.png,
sup_RN50_gauss_0_for_90_epoch_epoch90,1,372,NaN,elephant,boat,0,boat6-elephant2.png,
sup_RN50_gauss_0_for_90_epoch_epoch90,1,373,NaN,oven,boat,0,boat6-knife2.png,
sup_RN50_gauss_0_for_90_epoch_epoch90,1,374,NaN,keyboard,boat,0,boat6-truck3.png,
sup_RN50_gauss_0_for_90_epoch_epoch90,1,375,NaN,boat,boat,0,boat7-boat2.png,
sup_RN50_gauss_0_for_90_epoch_epoch90,1,376,NaN,bottle,boat,0,boat7-bottle1.png,
sup_RN50_gauss_0_for_90_epoch_epoch90,1,377,NaN,cat,boat,0,boat7-cat3.png,
sup_RN50_gauss_0_for_90_epoch_epoch90,1,378,NaN,keyboard,boat,0,boat7-chair1.png,
sup_RN50_gauss_0_for_90_epoch_epoch90,1,379,NaN,clock,boat,0,boat7-clock3.png,
sup_RN50_gauss_0_for_90_epoch_epoch90,1,380,NaN,elephant,boat,0,boat7-elephant3.png,
sup_RN50_gauss_0_for_90_epoch_epoch90,1,381,NaN,bottle,boat,0,boat7-keyboard3.png,
sup_RN50_gauss_0_for_90_epoch_epoch90,1,382,NaN,truck,boat,0,boat7-oven3.png,
sup_RN50_gauss_0_for_90_epoch_epoch90,1,383,NaN,bottle,boat,0,boat7-truck2.png,
sup_RN50_gauss_0_for_90_epoch_epoch90,1,384,NaN,bird,boat,0,boat8-bird2.png,
sup_RN50_gauss_0_for_90_epoch_epoch90,1,385,NaN,bottle,boat,0,boat8-bottle1.png,
sup_RN50_gauss_0_for_90_epoch_epoch90,1,386,NaN,dog,boat,0,boat8-dog3.png,
sup_RN50_gauss_0_for_90_epoch_epoch90,1,387,NaN,elephant,boat,0,boat8-elephant1.png,
sup_RN50_gauss_0_for_90_epoch_epoch90,1,388,NaN,knife,boat,0,boat8-knife1.png,
sup_RN50_gauss_0_for_90_epoch_epoch90,1,389,NaN,boat,boat,0,boat8-oven1.png,
sup_RN50_gauss_0_for_90_epoch_epoch90,1,390,NaN,car,boat,0,boat8-truck2.png,
sup_RN50_gauss_0_for_90_epoch_epoch90,1,391,NaN,clock,boat,0,boat9-airplane2.png,
sup_RN50_gauss_0_for_90_epoch_epoch90,1,392,NaN,bear,boat,0,boat9-bear3.png,
sup_RN50_gauss_0_for_90_epoch_epoch90,1,393,NaN,bottle,boat,0,boat9-bird1.png,
sup_RN50_gauss_0_for_90_epoch_epoch90,1,394,NaN,truck,boat,0,boat9-boat3.png,
sup_RN50_gauss_0_for_90_epoch_epoch90,1,395,NaN,cat,boat,0,boat9-cat3.png,
sup_RN50_gauss_0_for_90_epoch_epoch90,1,396,NaN,boat,boat,0,boat9-chair2.png,
sup_RN50_gauss_0_for_90_epoch_epoch90,1,397,NaN,bottle,boat,0,boat9-clock1.png,
sup_RN50_gauss_0_for_90_epoch_epoch90,1,398,NaN,dog,boat,0,boat9-dog2.png,
sup_RN50_gauss_0_for_90_epoch_epoch90,1,399,NaN,bottle,boat,0,boat9-keyboard2.png,
sup_RN50_gauss_0_for_90_epoch_epoch90,1,400,NaN,truck,boat,0,boat9-knife2.png,
sup_RN50_gauss_0_for_90_epoch_epoch90,1,401,NaN,cat,bottle,0,bottle1-bear1.png,
sup_RN50_gauss_0_for_90_epoch_epoch90,1,402,NaN,knife,bottle,0,bottle1-bird3.png,
sup_RN50_gauss_0_for_90_epoch_epoch90,1,403,NaN,chair,bottle,0,bottle1-car1.png,
sup_RN50_gauss_0_for_90_epoch_epoch90,1,404,NaN,cat,bottle,0,bottle1-cat3.png,
sup_RN50_gauss_0_for_90_epoch_epoch90,1,405,NaN,oven,bottle,0,bottle1-chair2.png,
sup_RN50_gauss_0_for_90_epoch_epoch90,1,406,NaN,clock,bottle,0,bottle1-clock1.png,
sup_RN50_gauss_0_for_90_epoch_epoch90,1,407,NaN,dog,bottle,0,bottle1-dog2.png,
sup_RN50_gauss_0_for_90_epoch_epoch90,1,408,NaN,bottle,bottle,0,bottle1-keyboard3.png,
sup_RN50_gauss_0_for_90_epoch_epoch90,1,409,NaN,bear,bottle,0,bottle10-bear2.png,
sup_RN50_gauss_0_for_90_epoch_epoch90,1,410,NaN,bottle,bottle,0,bottle10-boat3.png,
sup_RN50_gauss_0_for_90_epoch_epoch90,1,411,NaN,bottle,bottle,0,bottle10-car1.png,
sup_RN50_gauss_0_for_90_epoch_epoch90,1,412,NaN,bottle,bottle,0,bottle10-clock2.png,
sup_RN50_gauss_0_for_90_epoch_epoch90,1,413,NaN,bear,bottle,0,bottle10-dog1.png,
sup_RN50_gauss_0_for_90_epoch_epoch90,1,414,NaN,bottle,bottle,0,bottle10-truck3.png,
sup_RN50_gauss_0_for_90_epoch_epoch90,1,415,NaN,bottle,bottle,0,bottle2-bottle3.png,
sup_RN50_gauss_0_for_90_epoch_epoch90,1,416,NaN,bottle,bottle,0,bottle2-car2.png,
sup_RN50_gauss_0_for_90_epoch_epoch90,1,417,NaN,chair,bottle,0,bottle2-chair3.png,
sup_RN50_gauss_0_for_90_epoch_epoch90,1,418,NaN,clock,bottle,0,bottle2-clock1.png,
sup_RN50_gauss_0_for_90_epoch_epoch90,1,419,NaN,elephant,bottle,0,bottle2-elephant1.png,
sup_RN50_gauss_0_for_90_epoch_epoch90,1,420,NaN,bottle,bottle,0,bottle2-knife3.png,
sup_RN50_gauss_0_for_90_epoch_epoch90,1,421,NaN,clock,bottle,0,bottle3-airplane2.png,
sup_RN50_gauss_0_for_90_epoch_epoch90,1,422,NaN,elephant,bottle,0,bottle3-bear2.png,
sup_RN50_gauss_0_for_90_epoch_epoch90,1,423,NaN,bottle,bottle,0,bottle3-bicycle3.png,
sup_RN50_gauss_0_for_90_epoch_epoch90,1,424,NaN,bottle,bottle,0,bottle3-bird1.png,
sup_RN50_gauss_0_for_90_epoch_epoch90,1,425,NaN,clock,bottle,0,bottle3-boat3.png,
sup_RN50_gauss_0_for_90_epoch_epoch90,1,426,NaN,bottle,bottle,0,bottle3-bottle3.png,
sup_RN50_gauss_0_for_90_epoch_epoch90,1,427,NaN,cat,bottle,0,bottle3-cat3.png,
sup_RN50_gauss_0_for_90_epoch_epoch90,1,428,NaN,chair,bottle,0,bottle3-chair3.png,
sup_RN50_gauss_0_for_90_epoch_epoch90,1,429,NaN,bottle,bottle,0,bottle3-knife3.png,
sup_RN50_gauss_0_for_90_epoch_epoch90,1,430,NaN,knife,bottle,0,bottle4-airplane1.png,
sup_RN50_gauss_0_for_90_epoch_epoch90,1,431,NaN,bicycle,bottle,0,bottle4-bicycle1.png,
sup_RN50_gauss_0_for_90_epoch_epoch90,1,432,NaN,clock,bottle,0,bottle4-car3.png,
sup_RN50_gauss_0_for_90_epoch_epoch90,1,433,NaN,dog,bottle,0,bottle4-dog2.png,
sup_RN50_gauss_0_for_90_epoch_epoch90,1,434,NaN,bottle,bottle,0,bottle4-oven2.png,
sup_RN50_gauss_0_for_90_epoch_epoch90,1,435,NaN,bottle,bottle,0,bottle4-truck1.png,
sup_RN50_gauss_0_for_90_epoch_epoch90,1,436,NaN,clock,bottle,0,bottle5-airplane1.png,
sup_RN50_gauss_0_for_90_epoch_epoch90,1,437,NaN,bottle,bottle,0,bottle5-bird3.png,
sup_RN50_gauss_0_for_90_epoch_epoch90,1,438,NaN,bottle,bottle,0,bottle5-boat1.png,
sup_RN50_gauss_0_for_90_epoch_epoch90,1,439,NaN,cat,bottle,0,bottle5-cat1.png,
sup_RN50_gauss_0_for_90_epoch_epoch90,1,440,NaN,car,bottle,0,bottle5-chair1.png,
sup_RN50_gauss_0_for_90_epoch_epoch90,1,441,NaN,clock,bottle,0,bottle5-clock3.png,
sup_RN50_gauss_0_for_90_epoch_epoch90,1,442,NaN,elephant,bottle,0,bottle5-elephant1.png,
sup_RN50_gauss_0_for_90_epoch_epoch90,1,443,NaN,bottle,bottle,0,bottle5-keyboard2.png,
sup_RN50_gauss_0_for_90_epoch_epoch90,1,444,NaN,bottle,bottle,0,bottle5-knife1.png,
sup_RN50_gauss_0_for_90_epoch_epoch90,1,445,NaN,bottle,bottle,0,bottle5-oven2.png,
sup_RN50_gauss_0_for_90_epoch_epoch90,1,446,NaN,bottle,bottle,0,bottle5-truck1.png,
sup_RN50_gauss_0_for_90_epoch_epoch90,1,447,NaN,clock,bottle,0,bottle6-airplane1.png,
sup_RN50_gauss_0_for_90_epoch_epoch90,1,448,NaN,bear,bottle,0,bottle6-bear2.png,
sup_RN50_gauss_0_for_90_epoch_epoch90,1,449,NaN,bottle,bottle,0,bottle6-bicycle3.png,
sup_RN50_gauss_0_for_90_epoch_epoch90,1,450,NaN,bottle,bottle,0,bottle6-bird1.png,
sup_RN50_gauss_0_for_90_epoch_epoch90,1,451,NaN,bottle,bottle,0,bottle6-boat3.png,
sup_RN50_gauss_0_for_90_epoch_epoch90,1,452,NaN,bottle,bottle,0,bottle6-bottle3.png,
sup_RN50_gauss_0_for_90_epoch_epoch90,1,453,NaN,chair,bottle,0,bottle6-chair2.png,
sup_RN50_gauss_0_for_90_epoch_epoch90,1,454,NaN,dog,bottle,0,bottle6-dog3.png,
sup_RN50_gauss_0_for_90_epoch_epoch90,1,455,NaN,bottle,bottle,0,bottle6-knife3.png,
sup_RN50_gauss_0_for_90_epoch_epoch90,1,456,NaN,oven,bottle,0,bottle6-oven3.png,
sup_RN50_gauss_0_for_90_epoch_epoch90,1,457,NaN,airplane,bottle,0,bottle7-airplane3.png,
sup_RN50_gauss_0_for_90_epoch_epoch90,1,458,NaN,cat,bottle,0,bottle7-bear1.png,
sup_RN50_gauss_0_for_90_epoch_epoch90,1,459,NaN,truck,bottle,0,bottle7-boat3.png,
sup_RN50_gauss_0_for_90_epoch_epoch90,1,460,NaN,cat,bottle,0,bottle7-cat2.png,
sup_RN50_gauss_0_for_90_epoch_epoch90,1,461,NaN,clock,bottle,0,bottle7-clock1.png,
sup_RN50_gauss_0_for_90_epoch_epoch90,1,462,NaN,elephant,bottle,0,bottle7-elephant2.png,
sup_RN50_gauss_0_for_90_epoch_epoch90,1,463,NaN,clock,bottle,0,bottle7-keyboard2.png,
sup_RN50_gauss_0_for_90_epoch_epoch90,1,464,NaN,bottle,bottle,0,bottle7-oven2.png,
sup_RN50_gauss_0_for_90_epoch_epoch90,1,465,NaN,truck,bottle,0,bottle7-truck2.png,
sup_RN50_gauss_0_for_90_epoch_epoch90,1,466,NaN,bottle,bottle,0,bottle8-bicycle1.png,
sup_RN50_gauss_0_for_90_epoch_epoch90,1,467,NaN,bottle,bottle,0,bottle8-bird1.png,
sup_RN50_gauss_0_for_90_epoch_epoch90,1,468,NaN,bottle,bottle,0,bottle8-bottle3.png,
sup_RN50_gauss_0_for_90_epoch_epoch90,1,469,NaN,dog,bottle,0,bottle8-dog2.png,
sup_RN50_gauss_0_for_90_epoch_epoch90,1,470,NaN,elephant,bottle,0,bottle8-elephant3.png,
sup_RN50_gauss_0_for_90_epoch_epoch90,1,471,NaN,bottle,bottle,0,bottle8-keyboard3.png,
sup_RN50_gauss_0_for_90_epoch_epoch90,1,472,NaN,bottle,bottle,0,bottle8-knife1.png,
sup_RN50_gauss_0_for_90_epoch_epoch90,1,473,NaN,bottle,bottle,0,bottle9-bicycle1.png,
sup_RN50_gauss_0_for_90_epoch_epoch90,1,474,NaN,bottle,bottle,0,bottle9-bottle1.png,
sup_RN50_gauss_0_for_90_epoch_epoch90,1,475,NaN,car,bottle,0,bottle9-car3.png,
sup_RN50_gauss_0_for_90_epoch_epoch90,1,476,NaN,cat,bottle,0,bottle9-cat2.png,
sup_RN50_gauss_0_for_90_epoch_epoch90,1,477,NaN,elephant,bottle,0,bottle9-elephant2.png,
sup_RN50_gauss_0_for_90_epoch_epoch90,1,478,NaN,bottle,bottle,0,bottle9-keyboard1.png,
sup_RN50_gauss_0_for_90_epoch_epoch90,1,479,NaN,bottle,bottle,0,bottle9-oven2.png,
sup_RN50_gauss_0_for_90_epoch_epoch90,1,480,NaN,bottle,bottle,0,bottle9-truck1.png,
sup_RN50_gauss_0_for_90_epoch_epoch90,1,481,NaN,car,car,0,car1-airplane1.png,
sup_RN50_gauss_0_for_90_epoch_epoch90,1,482,NaN,boat,car,0,car1-car2.png,
sup_RN50_gauss_0_for_90_epoch_epoch90,1,483,NaN,airplane,car,0,car1-chair3.png,
sup_RN50_gauss_0_for_90_epoch_epoch90,1,484,NaN,car,car,0,car1-clock2.png,
sup_RN50_gauss_0_for_90_epoch_epoch90,1,485,NaN,cat,car,0,car1-dog2.png,
sup_RN50_gauss_0_for_90_epoch_epoch90,1,486,NaN,car,car,0,car1-keyboard2.png,
sup_RN50_gauss_0_for_90_epoch_epoch90,1,487,NaN,oven,car,0,car1-oven3.png,
sup_RN50_gauss_0_for_90_epoch_epoch90,1,488,NaN,car,car,0,car10-bicycle2.png,
sup_RN50_gauss_0_for_90_epoch_epoch90,1,489,NaN,bottle,car,0,car10-bottle3.png,
sup_RN50_gauss_0_for_90_epoch_epoch90,1,490,NaN,car,car,0,car10-car1.png,
sup_RN50_gauss_0_for_90_epoch_epoch90,1,491,NaN,chair,car,0,car10-chair1.png,
sup_RN50_gauss_0_for_90_epoch_epoch90,1,492,NaN,dog,car,0,car10-dog1.png,
sup_RN50_gauss_0_for_90_epoch_epoch90,1,493,NaN,elephant,car,0,car10-elephant2.png,
sup_RN50_gauss_0_for_90_epoch_epoch90,1,494,NaN,bottle,car,0,car10-keyboard2.png,
sup_RN50_gauss_0_for_90_epoch_epoch90,1,495,NaN,knife,car,0,car2-bird3.png,
sup_RN50_gauss_0_for_90_epoch_epoch90,1,496,NaN,car,car,0,car2-car3.png,
sup_RN50_gauss_0_for_90_epoch_epoch90,1,497,NaN,bottle,car,0,car2-cat3.png,
sup_RN50_gauss_0_for_90_epoch_epoch90,1,498,NaN,car,car,0,car2-chair1.png,
sup_RN50_gauss_0_for_90_epoch_epoch90,1,499,NaN,knife,car,0,car2-knife3.png,
sup_RN50_gauss_0_for_90_epoch_epoch90,1,500,NaN,car,car,0,car3-airplane3.png,
sup_RN50_gauss_0_for_90_epoch_epoch90,1,501,NaN,car,car,0,car3-bird2.png,
sup_RN50_gauss_0_for_90_epoch_epoch90,1,502,NaN,car,car,0,car3-boat1.png,
sup_RN50_gauss_0_for_90_epoch_epoch90,1,503,NaN,bottle,car,0,car3-bottle3.png,
sup_RN50_gauss_0_for_90_epoch_epoch90,1,504,NaN,dog,car,0,car3-dog2.png,
sup_RN50_gauss_0_for_90_epoch_epoch90,1,505,NaN,elephant,car,0,car3-elephant3.png,
sup_RN50_gauss_0_for_90_epoch_epoch90,1,506,NaN,oven,car,0,car3-oven3.png,
sup_RN50_gauss_0_for_90_epoch_epoch90,1,507,NaN,car,car,0,car3-truck1.png,
sup_RN50_gauss_0_for_90_epoch_epoch90,1,508,NaN,bear,car,0,car4-bear3.png,
sup_RN50_gauss_0_for_90_epoch_epoch90,1,509,NaN,truck,car,0,car4-bicycle3.png,
sup_RN50_gauss_0_for_90_epoch_epoch90,1,510,NaN,bird,car,0,car4-bird1.png,
sup_RN50_gauss_0_for_90_epoch_epoch90,1,511,NaN,car,car,0,car4-boat1.png,
sup_RN50_gauss_0_for_90_epoch_epoch90,1,512,NaN,bottle,car,0,car4-bottle1.png,
sup_RN50_gauss_0_for_90_epoch_epoch90,1,513,NaN,car,car,0,car4-car2.png,
sup_RN50_gauss_0_for_90_epoch_epoch90,1,514,NaN,cat,car,0,car4-cat3.png,
sup_RN50_gauss_0_for_90_epoch_epoch90,1,515,NaN,clock,car,0,car4-clock1.png,
sup_RN50_gauss_0_for_90_epoch_epoch90,1,516,NaN,elephant,car,0,car4-elephant3.png,
sup_RN50_gauss_0_for_90_epoch_epoch90,1,517,NaN,keyboard,car,0,car4-oven2.png,
sup_RN50_gauss_0_for_90_epoch_epoch90,1,518,NaN,car,car,0,car5-airplane3.png,
sup_RN50_gauss_0_for_90_epoch_epoch90,1,519,NaN,cat,car,0,car5-bear3.png,
sup_RN50_gauss_0_for_90_epoch_epoch90,1,520,NaN,bottle,car,0,car5-bottle1.png,
sup_RN50_gauss_0_for_90_epoch_epoch90,1,521,NaN,dog,car,0,car5-cat1.png,
sup_RN50_gauss_0_for_90_epoch_epoch90,1,522,NaN,keyboard,car,0,car5-keyboard3.png,
sup_RN50_gauss_0_for_90_epoch_epoch90,1,523,NaN,truck,car,0,car5-knife2.png,
sup_RN50_gauss_0_for_90_epoch_epoch90,1,524,NaN,car,car,0,car5-oven2.png,
sup_RN50_gauss_0_for_90_epoch_epoch90,1,525,NaN,car,car,0,car5-truck3.png,
sup_RN50_gauss_0_for_90_epoch_epoch90,1,526,NaN,cat,car,0,car6-bear1.png,
sup_RN50_gauss_0_for_90_epoch_epoch90,1,527,NaN,bicycle,car,0,car6-bicycle3.png,
sup_RN50_gauss_0_for_90_epoch_epoch90,1,528,NaN,boat,car,0,car6-boat1.png,
sup_RN50_gauss_0_for_90_epoch_epoch90,1,529,NaN,bottle,car,0,car6-bottle1.png,
sup_RN50_gauss_0_for_90_epoch_epoch90,1,530,NaN,car,car,0,car6-chair3.png,
sup_RN50_gauss_0_for_90_epoch_epoch90,1,531,NaN,elephant,car,0,car6-elephant3.png,
sup_RN50_gauss_0_for_90_epoch_epoch90,1,532,NaN,car,car,0,car6-knife1.png,
sup_RN50_gauss_0_for_90_epoch_epoch90,1,533,NaN,car,car,0,car6-truck3.png,
sup_RN50_gauss_0_for_90_epoch_epoch90,1,534,NaN,car,car,0,car7-airplane2.png,
sup_RN50_gauss_0_for_90_epoch_epoch90,1,535,NaN,bear,car,0,car7-bear1.png,
sup_RN50_gauss_0_for_90_epoch_epoch90,1,536,NaN,bird,car,0,car7-bird3.png,
sup_RN50_gauss_0_for_90_epoch_epoch90,1,537,NaN,boat,car,0,car7-boat3.png,
sup_RN50_gauss_0_for_90_epoch_epoch90,1,538,NaN,boat,car,0,car7-car1.png,
sup_RN50_gauss_0_for_90_epoch_epoch90,1,539,NaN,clock,car,0,car7-clock1.png,
sup_RN50_gauss_0_for_90_epoch_epoch90,1,540,NaN,dog,car,0,car7-dog3.png,
sup_RN50_gauss_0_for_90_epoch_epoch90,1,541,NaN,elephant,car,0,car7-elephant3.png,
sup_RN50_gauss_0_for_90_epoch_epoch90,1,542,NaN,keyboard,car,0,car7-keyboard3.png,
sup_RN50_gauss_0_for_90_epoch_epoch90,1,543,NaN,truck,car,0,car7-oven2.png,
sup_RN50_gauss_0_for_90_epoch_epoch90,1,544,NaN,airplane,car,0,car8-airplane3.png,
sup_RN50_gauss_0_for_90_epoch_epoch90,1,545,NaN,cat,car,0,car8-bear1.png,
sup_RN50_gauss_0_for_90_epoch_epoch90,1,546,NaN,bicycle,car,0,car8-bicycle2.png,
sup_RN50_gauss_0_for_90_epoch_epoch90,1,547,NaN,car,car,0,car8-boat3.png,
sup_RN50_gauss_0_for_90_epoch_epoch90,1,548,NaN,cat,car,0,car8-cat1.png,
sup_RN50_gauss_0_for_90_epoch_epoch90,1,549,NaN,car,car,0,car8-chair1.png,
sup_RN50_gauss_0_for_90_epoch_epoch90,1,550,NaN,car,car,0,car8-clock2.png,
sup_RN50_gauss_0_for_90_epoch_epoch90,1,551,NaN,dog,car,0,car8-dog1.png,
sup_RN50_gauss_0_for_90_epoch_epoch90,1,552,NaN,car,car,0,car8-knife2.png,
sup_RN50_gauss_0_for_90_epoch_epoch90,1,553,NaN,car,car,0,car8-truck3.png,
sup_RN50_gauss_0_for_90_epoch_epoch90,1,554,NaN,car,car,0,car9-bicycle2.png,
sup_RN50_gauss_0_for_90_epoch_epoch90,1,555,NaN,bird,car,0,car9-bird1.png,
sup_RN50_gauss_0_for_90_epoch_epoch90,1,556,NaN,cat,car,0,car9-cat1.png,
sup_RN50_gauss_0_for_90_epoch_epoch90,1,557,NaN,car,car,0,car9-clock2.png,
sup_RN50_gauss_0_for_90_epoch_epoch90,1,558,NaN,keyboard,car,0,car9-keyboard2.png,
sup_RN50_gauss_0_for_90_epoch_epoch90,1,559,NaN,car,car,0,car9-knife1.png,
sup_RN50_gauss_0_for_90_epoch_epoch90,1,560,NaN,car,car,0,car9-truck3.png,
sup_RN50_gauss_0_for_90_epoch_epoch90,1,561,NaN,airplane,cat,0,cat1-airplane1.png,
sup_RN50_gauss_0_for_90_epoch_epoch90,1,562,NaN,bottle,cat,0,cat1-bird1.png,
sup_RN50_gauss_0_for_90_epoch_epoch90,1,563,NaN,clock,cat,0,cat1-boat1.png,
sup_RN50_gauss_0_for_90_epoch_epoch90,1,564,NaN,boat,cat,0,cat1-car2.png,
sup_RN50_gauss_0_for_90_epoch_epoch90,1,565,NaN,cat,cat,0,cat1-cat3.png,
sup_RN50_gauss_0_for_90_epoch_epoch90,1,566,NaN,chair,cat,0,cat1-chair2.png,
sup_RN50_gauss_0_for_90_epoch_epoch90,1,567,NaN,cat,cat,0,cat1-dog1.png,
sup_RN50_gauss_0_for_90_epoch_epoch90,1,568,NaN,bottle,cat,0,cat1-keyboard3.png,
sup_RN50_gauss_0_for_90_epoch_epoch90,1,569,NaN,oven,cat,0,cat1-oven1.png,
sup_RN50_gauss_0_for_90_epoch_epoch90,1,570,NaN,car,cat,0,cat10-airplane3.png,
sup_RN50_gauss_0_for_90_epoch_epoch90,1,571,NaN,cat,cat,0,cat10-bear1.png,
sup_RN50_gauss_0_for_90_epoch_epoch90,1,572,NaN,bicycle,cat,0,cat10-bicycle1.png,
sup_RN50_gauss_0_for_90_epoch_epoch90,1,573,NaN,cat,cat,0,cat10-bird2.png,
sup_RN50_gauss_0_for_90_epoch_epoch90,1,574,NaN,bottle,cat,0,cat10-bottle1.png,
sup_RN50_gauss_0_for_90_epoch_epoch90,1,575,NaN,clock,cat,0,cat10-clock1.png,
sup_RN50_gauss_0_for_90_epoch_epoch90,1,576,NaN,elephant,cat,0,cat10-elephant3.png,
sup_RN50_gauss_0_for_90_epoch_epoch90,1,577,NaN,keyboard,cat,0,cat10-keyboard1.png,
sup_RN50_gauss_0_for_90_epoch_epoch90,1,578,NaN,oven,cat,0,cat10-oven2.png,
sup_RN50_gauss_0_for_90_epoch_epoch90,1,579,NaN,clock,cat,0,cat2-boat2.png,
sup_RN50_gauss_0_for_90_epoch_epoch90,1,580,NaN,clock,cat,0,cat2-bottle3.png,
sup_RN50_gauss_0_for_90_epoch_epoch90,1,581,NaN,car,cat,0,cat2-car3.png,
sup_RN50_gauss_0_for_90_epoch_epoch90,1,582,NaN,cat,cat,0,cat2-cat1.png,
sup_RN50_gauss_0_for_90_epoch_epoch90,1,583,NaN,elephant,cat,0,cat2-elephant1.png,
sup_RN50_gauss_0_for_90_epoch_epoch90,1,584,NaN,knife,cat,0,cat2-knife3.png,
sup_RN50_gauss_0_for_90_epoch_epoch90,1,585,NaN,clock,cat,0,cat2-truck3.png,
sup_RN50_gauss_0_for_90_epoch_epoch90,1,586,NaN,bear,cat,0,cat3-bear2.png,
sup_RN50_gauss_0_for_90_epoch_epoch90,1,587,NaN,bicycle,cat,0,cat3-bicycle1.png,
sup_RN50_gauss_0_for_90_epoch_epoch90,1,588,NaN,cat,cat,0,cat3-cat1.png,
sup_RN50_gauss_0_for_90_epoch_epoch90,1,589,NaN,elephant,cat,0,cat3-elephant2.png,
sup_RN50_gauss_0_for_90_epoch_epoch90,1,590,NaN,truck,cat,0,cat3-oven2.png,
sup_RN50_gauss_0_for_90_epoch_epoch90,1,591,NaN,truck,cat,0,cat3-truck3.png,
sup_RN50_gauss_0_for_90_epoch_epoch90,1,592,NaN,clock,cat,0,cat4-airplane1.png,
sup_RN50_gauss_0_for_90_epoch_epoch90,1,593,NaN,bird,cat,0,cat4-bird2.png,
sup_RN50_gauss_0_for_90_epoch_epoch90,1,594,NaN,boat,cat,0,cat4-car2.png,
sup_RN50_gauss_0_for_90_epoch_epoch90,1,595,NaN,cat,cat,0,cat4-cat3.png,
sup_RN50_gauss_0_for_90_epoch_epoch90,1,596,NaN,chair,cat,0,cat4-chair2.png,
sup_RN50_gauss_0_for_90_epoch_epoch90,1,597,NaN,clock,cat,0,cat4-clock2.png,
sup_RN50_gauss_0_for_90_epoch_epoch90,1,598,NaN,dog,cat,0,cat4-dog3.png,
sup_RN50_gauss_0_for_90_epoch_epoch90,1,599,NaN,clock,cat,0,cat4-keyboard2.png,
sup_RN50_gauss_0_for_90_epoch_epoch90,1,600,NaN,knife,cat,0,cat4-knife1.png,
sup_RN50_gauss_0_for_90_epoch_epoch90,1,601,NaN,oven,cat,0,cat4-oven1.png,
sup_RN50_gauss_0_for_90_epoch_epoch90,1,602,NaN,chair,cat,0,cat4-truck3.png,
sup_RN50_gauss_0_for_90_epoch_epoch90,1,603,NaN,car,cat,0,cat5-airplane2.png,
sup_RN50_gauss_0_for_90_epoch_epoch90,1,604,NaN,cat,cat,0,cat5-bear2.png,
sup_RN50_gauss_0_for_90_epoch_epoch90,1,605,NaN,knife,cat,0,cat5-bicycle3.png,
sup_RN50_gauss_0_for_90_epoch_epoch90,1,606,NaN,boat,cat,0,cat5-boat1.png,
sup_RN50_gauss_0_for_90_epoch_epoch90,1,607,NaN,bottle,cat,0,cat5-bottle1.png,
sup_RN50_gauss_0_for_90_epoch_epoch90,1,608,NaN,bottle,cat,0,cat5-car2.png,
sup_RN50_gauss_0_for_90_epoch_epoch90,1,609,NaN,chair,cat,0,cat5-chair3.png,
sup_RN50_gauss_0_for_90_epoch_epoch90,1,610,NaN,dog,cat,0,cat5-dog3.png,
sup_RN50_gauss_0_for_90_epoch_epoch90,1,611,NaN,elephant,cat,0,cat5-elephant2.png,
sup_RN50_gauss_0_for_90_epoch_epoch90,1,612,NaN,bottle,cat,0,cat5-keyboard3.png,
sup_RN50_gauss_0_for_90_epoch_epoch90,1,613,NaN,truck,cat,0,cat5-knife2.png,
sup_RN50_gauss_0_for_90_epoch_epoch90,1,614,NaN,cat,cat,0,cat6-bear1.png,
sup_RN50_gauss_0_for_90_epoch_epoch90,1,615,NaN,chair,cat,0,cat6-chair3.png,
sup_RN50_gauss_0_for_90_epoch_epoch90,1,616,NaN,keyboard,cat,0,cat6-clock3.png,
sup_RN50_gauss_0_for_90_epoch_epoch90,1,617,NaN,bottle,cat,0,cat6-keyboard3.png,
sup_RN50_gauss_0_for_90_epoch_epoch90,1,618,NaN,knife,cat,0,cat6-oven1.png,
sup_RN50_gauss_0_for_90_epoch_epoch90,1,619,NaN,boat,cat,0,cat7-airplane2.png,
sup_RN50_gauss_0_for_90_epoch_epoch90,1,620,NaN,boat,cat,0,cat7-boat3.png,
sup_RN50_gauss_0_for_90_epoch_epoch90,1,621,NaN,bottle,cat,0,cat7-bottle1.png,
sup_RN50_gauss_0_for_90_epoch_epoch90,1,622,NaN,clock,cat,0,cat7-clock3.png,
sup_RN50_gauss_0_for_90_epoch_epoch90,1,623,NaN,dog,cat,0,cat7-dog3.png,
sup_RN50_gauss_0_for_90_epoch_epoch90,1,624,NaN,elephant,cat,0,cat7-elephant1.png,
sup_RN50_gauss_0_for_90_epoch_epoch90,1,625,NaN,knife,cat,0,cat7-knife2.png,
sup_RN50_gauss_0_for_90_epoch_epoch90,1,626,NaN,car,cat,0,cat7-truck2.png,
sup_RN50_gauss_0_for_90_epoch_epoch90,1,627,NaN,cat,cat,0,cat8-bear1.png,
sup_RN50_gauss_0_for_90_epoch_epoch90,1,628,NaN,knife,cat,0,cat8-bicycle3.png,
sup_RN50_gauss_0_for_90_epoch_epoch90,1,629,NaN,cat,cat,0,cat8-bird2.png,
sup_RN50_gauss_0_for_90_epoch_epoch90,1,630,NaN,boat,cat,0,cat8-car2.png,
sup_RN50_gauss_0_for_90_epoch_epoch90,1,631,NaN,bicycle,cat,0,cat9-bicycle1.png,
sup_RN50_gauss_0_for_90_epoch_epoch90,1,632,NaN,bird,cat,0,cat9-bird3.png,
sup_RN50_gauss_0_for_90_epoch_epoch90,1,633,NaN,boat,cat,0,cat9-boat2.png,
sup_RN50_gauss_0_for_90_epoch_epoch90,1,634,NaN,bottle,cat,0,cat9-bottle2.png,
sup_RN50_gauss_0_for_90_epoch_epoch90,1,635,NaN,cat,cat,0,cat9-cat3.png,
sup_RN50_gauss_0_for_90_epoch_epoch90,1,636,NaN,chair,cat,0,cat9-chair2.png,
sup_RN50_gauss_0_for_90_epoch_epoch90,1,637,NaN,clock,cat,0,cat9-clock2.png,
sup_RN50_gauss_0_for_90_epoch_epoch90,1,638,NaN,dog,cat,0,cat9-dog2.png,
sup_RN50_gauss_0_for_90_epoch_epoch90,1,639,NaN,knife,cat,0,cat9-knife2.png,
sup_RN50_gauss_0_for_90_epoch_epoch90,1,640,NaN,bottle,cat,0,cat9-truck1.png,
sup_RN50_gauss_0_for_90_epoch_epoch90,1,641,NaN,car,chair,0,chair1-airplane2.png,
sup_RN50_gauss_0_for_90_epoch_epoch90,1,642,NaN,cat,chair,0,chair1-bear1.png,
sup_RN50_gauss_0_for_90_epoch_epoch90,1,643,NaN,cat,chair,0,chair1-cat3.png,
sup_RN50_gauss_0_for_90_epoch_epoch90,1,644,NaN,car,chair,0,chair1-chair1.png,
sup_RN50_gauss_0_for_90_epoch_epoch90,1,645,NaN,bottle,chair,0,chair1-clock2.png,
sup_RN50_gauss_0_for_90_epoch_epoch90,1,646,NaN,bottle,chair,0,chair1-dog1.png,
sup_RN50_gauss_0_for_90_epoch_epoch90,1,647,NaN,elephant,chair,0,chair1-elephant1.png,
sup_RN50_gauss_0_for_90_epoch_epoch90,1,648,NaN,oven,chair,0,chair1-oven3.png,
sup_RN50_gauss_0_for_90_epoch_epoch90,1,649,NaN,bottle,chair,0,chair1-truck3.png,
sup_RN50_gauss_0_for_90_epoch_epoch90,1,650,NaN,car,chair,0,chair10-airplane2.png,
sup_RN50_gauss_0_for_90_epoch_epoch90,1,651,NaN,bicycle,chair,0,chair10-bicycle1.png,
sup_RN50_gauss_0_for_90_epoch_epoch90,1,652,NaN,chair,chair,0,chair10-bird3.png,
sup_RN50_gauss_0_for_90_epoch_epoch90,1,653,NaN,bottle,chair,0,chair10-bottle3.png,
sup_RN50_gauss_0_for_90_epoch_epoch90,1,654,NaN,bottle,chair,0,chair10-car2.png,
sup_RN50_gauss_0_for_90_epoch_epoch90,1,655,NaN,dog,chair,0,chair10-cat1.png,
sup_RN50_gauss_0_for_90_epoch_epoch90,1,656,NaN,bottle,chair,0,chair10-clock1.png,
sup_RN50_gauss_0_for_90_epoch_epoch90,1,657,NaN,dog,chair,0,chair10-dog1.png,
sup_RN50_gauss_0_for_90_epoch_epoch90,1,658,NaN,oven,chair,0,chair10-oven1.png,
sup_RN50_gauss_0_for_90_epoch_epoch90,1,659,NaN,elephant,chair,0,chair2-bear2.png,
sup_RN50_gauss_0_for_90_epoch_epoch90,1,660,NaN,airplane,chair,0,chair2-boat1.png,
sup_RN50_gauss_0_for_90_epoch_epoch90,1,661,NaN,bottle,chair,0,chair2-keyboard2.png,
sup_RN50_gauss_0_for_90_epoch_epoch90,1,662,NaN,bottle,chair,0,chair2-knife1.png,
sup_RN50_gauss_0_for_90_epoch_epoch90,1,663,NaN,bird,chair,0,chair3-airplane2.png,
sup_RN50_gauss_0_for_90_epoch_epoch90,1,664,NaN,chair,chair,0,chair3-bicycle3.png,
sup_RN50_gauss_0_for_90_epoch_epoch90,1,665,NaN,bottle,chair,0,chair3-bottle3.png,
sup_RN50_gauss_0_for_90_epoch_epoch90,1,666,NaN,car,chair,0,chair3-car3.png,
sup_RN50_gauss_0_for_90_epoch_epoch90,1,667,NaN,dog,chair,0,chair3-dog2.png,
sup_RN50_gauss_0_for_90_epoch_epoch90,1,668,NaN,knife,chair,0,chair3-knife1.png,
sup_RN50_gauss_0_for_90_epoch_epoch90,1,669,NaN,elephant,chair,0,chair4-bear2.png,
sup_RN50_gauss_0_for_90_epoch_epoch90,1,670,NaN,cat,chair,0,chair4-cat2.png,
sup_RN50_gauss_0_for_90_epoch_epoch90,1,671,NaN,chair,chair,0,chair4-chair3.png,
sup_RN50_gauss_0_for_90_epoch_epoch90,1,672,NaN,keyboard,chair,0,chair4-keyboard2.png,
sup_RN50_gauss_0_for_90_epoch_epoch90,1,673,NaN,bottle,chair,0,chair4-oven2.png,
sup_RN50_gauss_0_for_90_epoch_epoch90,1,674,NaN,bottle,chair,0,chair4-truck2.png,
sup_RN50_gauss_0_for_90_epoch_epoch90,1,675,NaN,bicycle,chair,0,chair5-bicycle1.png,
sup_RN50_gauss_0_for_90_epoch_epoch90,1,676,NaN,bird,chair,0,chair5-bird1.png,
sup_RN50_gauss_0_for_90_epoch_epoch90,1,677,NaN,airplane,chair,0,chair5-boat3.png,
sup_RN50_gauss_0_for_90_epoch_epoch90,1,678,NaN,bottle,chair,0,chair5-bottle3.png,
sup_RN50_gauss_0_for_90_epoch_epoch90,1,679,NaN,car,chair,0,chair5-car1.png,
sup_RN50_gauss_0_for_90_epoch_epoch90,1,680,NaN,cat,chair,0,chair5-cat3.png,
sup_RN50_gauss_0_for_90_epoch_epoch90,1,681,NaN,car,chair,0,chair5-clock2.png,
sup_RN50_gauss_0_for_90_epoch_epoch90,1,682,NaN,bottle,chair,0,chair5-keyboard2.png,
sup_RN50_gauss_0_for_90_epoch_epoch90,1,683,NaN,knife,chair,0,chair5-knife3.png,
sup_RN50_gauss_0_for_90_epoch_epoch90,1,684,NaN,chair,chair,0,chair5-oven2.png,
sup_RN50_gauss_0_for_90_epoch_epoch90,1,685,NaN,car,chair,0,chair5-truck3.png,
sup_RN50_gauss_0_for_90_epoch_epoch90,1,686,NaN,bird,chair,0,chair6-bird2.png,
sup_RN50_gauss_0_for_90_epoch_epoch90,1,687,NaN,cat,chair,0,chair6-dog1.png,
sup_RN50_gauss_0_for_90_epoch_epoch90,1,688,NaN,elephant,chair,0,chair6-elephant2.png,
sup_RN50_gauss_0_for_90_epoch_epoch90,1,689,NaN,bottle,chair,0,chair6-truck2.png,
sup_RN50_gauss_0_for_90_epoch_epoch90,1,690,NaN,clock,chair,0,chair7-airplane1.png,
sup_RN50_gauss_0_for_90_epoch_epoch90,1,691,NaN,bottle,chair,0,chair7-bird1.png,
sup_RN50_gauss_0_for_90_epoch_epoch90,1,692,NaN,airplane,chair,0,chair7-boat3.png,
sup_RN50_gauss_0_for_90_epoch_epoch90,1,693,NaN,bottle,chair,0,chair7-bottle1.png,
sup_RN50_gauss_0_for_90_epoch_epoch90,1,694,NaN,knife,chair,0,chair7-car2.png,
sup_RN50_gauss_0_for_90_epoch_epoch90,1,695,NaN,cat,chair,0,chair7-cat1.png,
sup_RN50_gauss_0_for_90_epoch_epoch90,1,696,NaN,chair,chair,0,chair7-chair1.png,
sup_RN50_gauss_0_for_90_epoch_epoch90,1,697,NaN,clock,chair,0,chair7-clock3.png,
sup_RN50_gauss_0_for_90_epoch_epoch90,1,698,NaN,elephant,chair,0,chair7-elephant1.png,
sup_RN50_gauss_0_for_90_epoch_epoch90,1,699,NaN,knife,chair,0,chair7-knife2.png,
sup_RN50_gauss_0_for_90_epoch_epoch90,1,700,NaN,chair,chair,0,chair7-truck3.png,
sup_RN50_gauss_0_for_90_epoch_epoch90,1,701,NaN,knife,chair,0,chair8-airplane1.png,
sup_RN50_gauss_0_for_90_epoch_epoch90,1,702,NaN,elephant,chair,0,chair8-bear1.png,
sup_RN50_gauss_0_for_90_epoch_epoch90,1,703,NaN,chair,chair,0,chair8-bicycle3.png,
sup_RN50_gauss_0_for_90_epoch_epoch90,1,704,NaN,bottle,chair,0,chair8-boat1.png,
sup_RN50_gauss_0_for_90_epoch_epoch90,1,705,NaN,boat,chair,0,chair8-car1.png,
sup_RN50_gauss_0_for_90_epoch_epoch90,1,706,NaN,chair,chair,0,chair8-chair3.png,
sup_RN50_gauss_0_for_90_epoch_epoch90,1,707,NaN,clock,chair,0,chair8-clock3.png,
sup_RN50_gauss_0_for_90_epoch_epoch90,1,708,NaN,elephant,chair,0,chair8-elephant1.png,
sup_RN50_gauss_0_for_90_epoch_epoch90,1,709,NaN,bottle,chair,0,chair8-keyboard3.png,
sup_RN50_gauss_0_for_90_epoch_epoch90,1,710,NaN,knife,chair,0,chair8-knife2.png,
sup_RN50_gauss_0_for_90_epoch_epoch90,1,711,NaN,bottle,chair,0,chair8-oven1.png,
sup_RN50_gauss_0_for_90_epoch_epoch90,1,712,NaN,cat,chair,0,chair9-bear1.png,
sup_RN50_gauss_0_for_90_epoch_epoch90,1,713,NaN,bicycle,chair,0,chair9-bicycle3.png,
sup_RN50_gauss_0_for_90_epoch_epoch90,1,714,NaN,clock,chair,0,chair9-bird3.png,
sup_RN50_gauss_0_for_90_epoch_epoch90,1,715,NaN,boat,chair,0,chair9-boat2.png,
sup_RN50_gauss_0_for_90_epoch_epoch90,1,716,NaN,bottle,chair,0,chair9-bottle3.png,
sup_RN50_gauss_0_for_90_epoch_epoch90,1,717,NaN,chair,chair,0,chair9-chair3.png,
sup_RN50_gauss_0_for_90_epoch_epoch90,1,718,NaN,dog,chair,0,chair9-dog2.png,
sup_RN50_gauss_0_for_90_epoch_epoch90,1,719,NaN,elephant,chair,0,chair9-elephant1.png,
sup_RN50_gauss_0_for_90_epoch_epoch90,1,720,NaN,keyboard,chair,0,chair9-keyboard2.png,
sup_RN50_gauss_0_for_90_epoch_epoch90,1,721,NaN,cat,clock,0,clock1-bear1.png,
sup_RN50_gauss_0_for_90_epoch_epoch90,1,722,NaN,truck,clock,0,clock1-boat3.png,
sup_RN50_gauss_0_for_90_epoch_epoch90,1,723,NaN,boat,clock,0,clock1-car1.png,
sup_RN50_gauss_0_for_90_epoch_epoch90,1,724,NaN,clock,clock,0,clock1-clock2.png,
sup_RN50_gauss_0_for_90_epoch_epoch90,1,725,NaN,dog,clock,0,clock1-dog2.png,
sup_RN50_gauss_0_for_90_epoch_epoch90,1,726,NaN,elephant,clock,0,clock1-elephant2.png,
sup_RN50_gauss_0_for_90_epoch_epoch90,1,727,NaN,car,clock,0,clock1-truck3.png,
sup_RN50_gauss_0_for_90_epoch_epoch90,1,728,NaN,clock,clock,0,clock10-airplane1.png,
sup_RN50_gauss_0_for_90_epoch_epoch90,1,729,NaN,bottle,clock,0,clock10-bird3.png,
sup_RN50_gauss_0_for_90_epoch_epoch90,1,730,NaN,boat,clock,0,clock10-boat2.png,
sup_RN50_gauss_0_for_90_epoch_epoch90,1,731,NaN,bottle,clock,0,clock10-bottle1.png,
sup_RN50_gauss_0_for_90_epoch_epoch90,1,732,NaN,dog,clock,0,clock10-cat1.png,
sup_RN50_gauss_0_for_90_epoch_epoch90,1,733,NaN,clock,clock,0,clock10-clock3.png,
sup_RN50_gauss_0_for_90_epoch_epoch90,1,734,NaN,dog,clock,0,clock10-dog3.png,
sup_RN50_gauss_0_for_90_epoch_epoch90,1,735,NaN,bottle,clock,0,clock10-knife3.png,
sup_RN50_gauss_0_for_90_epoch_epoch90,1,736,NaN,bottle,clock,0,clock10-oven2.png,
sup_RN50_gauss_0_for_90_epoch_epoch90,1,737,NaN,bottle,clock,0,clock10-truck2.png,
sup_RN50_gauss_0_for_90_epoch_epoch90,1,738,NaN,elephant,clock,0,clock2-bear2.png,
sup_RN50_gauss_0_for_90_epoch_epoch90,1,739,NaN,clock,clock,0,clock2-bicycle1.png,
sup_RN50_gauss_0_for_90_epoch_epoch90,1,740,NaN,clock,clock,0,clock2-bottle3.png,
sup_RN50_gauss_0_for_90_epoch_epoch90,1,741,NaN,clock,clock,0,clock2-clock3.png,
sup_RN50_gauss_0_for_90_epoch_epoch90,1,742,NaN,bear,clock,0,clock2-dog1.png,
sup_RN50_gauss_0_for_90_epoch_epoch90,1,743,NaN,elephant,clock,0,clock2-elephant2.png,
sup_RN50_gauss_0_for_90_epoch_epoch90,1,744,NaN,clock,clock,0,clock2-knife1.png,
sup_RN50_gauss_0_for_90_epoch_epoch90,1,745,NaN,bear,clock,0,clock3-bear3.png,
sup_RN50_gauss_0_for_90_epoch_epoch90,1,746,NaN,bicycle,clock,0,clock3-bicycle2.png,
sup_RN50_gauss_0_for_90_epoch_epoch90,1,747,NaN,clock,clock,0,clock3-bird1.png,
sup_RN50_gauss_0_for_90_epoch_epoch90,1,748,NaN,clock,clock,0,clock3-car2.png,
sup_RN50_gauss_0_for_90_epoch_epoch90,1,749,NaN,clock,clock,0,clock3-cat1.png,
sup_RN50_gauss_0_for_90_epoch_epoch90,1,750,NaN,bear,clock,0,clock3-dog2.png,
sup_RN50_gauss_0_for_90_epoch_epoch90,1,751,NaN,elephant,clock,0,clock3-elephant3.png,
sup_RN50_gauss_0_for_90_epoch_epoch90,1,752,NaN,clock,clock,0,clock3-keyboard3.png,
sup_RN50_gauss_0_for_90_epoch_epoch90,1,753,NaN,clock,clock,0,clock4-airplane1.png,
sup_RN50_gauss_0_for_90_epoch_epoch90,1,754,NaN,clock,clock,0,clock4-bird3.png,
sup_RN50_gauss_0_for_90_epoch_epoch90,1,755,NaN,boat,clock,0,clock4-boat3.png,
sup_RN50_gauss_0_for_90_epoch_epoch90,1,756,NaN,clock,clock,0,clock4-bottle3.png,
sup_RN50_gauss_0_for_90_epoch_epoch90,1,757,NaN,clock,clock,0,clock4-car2.png,
sup_RN50_gauss_0_for_90_epoch_epoch90,1,758,NaN,car,clock,0,clock4-chair1.png,
sup_RN50_gauss_0_for_90_epoch_epoch90,1,759,NaN,elephant,clock,0,clock4-elephant2.png,
sup_RN50_gauss_0_for_90_epoch_epoch90,1,760,NaN,clock,clock,0,clock4-knife1.png,
sup_RN50_gauss_0_for_90_epoch_epoch90,1,761,NaN,clock,clock,0,clock4-oven1.png,
sup_RN50_gauss_0_for_90_epoch_epoch90,1,762,NaN,clock,clock,0,clock5-airplane1.png,
sup_RN50_gauss_0_for_90_epoch_epoch90,1,763,NaN,clock,clock,0,clock5-bicycle1.png,
sup_RN50_gauss_0_for_90_epoch_epoch90,1,764,NaN,car,clock,0,clock5-chair3.png,
sup_RN50_gauss_0_for_90_epoch_epoch90,1,765,NaN,clock,clock,0,clock5-clock2.png,
sup_RN50_gauss_0_for_90_epoch_epoch90,1,766,NaN,elephant,clock,0,clock5-elephant2.png,
sup_RN50_gauss_0_for_90_epoch_epoch90,1,767,NaN,bottle,clock,0,clock5-keyboard1.png,
sup_RN50_gauss_0_for_90_epoch_epoch90,1,768,NaN,clock,clock,0,clock5-oven1.png,
sup_RN50_gauss_0_for_90_epoch_epoch90,1,769,NaN,clock,clock,0,clock6-bicycle1.png,
sup_RN50_gauss_0_for_90_epoch_epoch90,1,770,NaN,clock,clock,0,clock6-bird3.png,
sup_RN50_gauss_0_for_90_epoch_epoch90,1,771,NaN,clock,clock,0,clock6-bottle1.png,
sup_RN50_gauss_0_for_90_epoch_epoch90,1,772,NaN,clock,clock,0,clock6-car2.png,
sup_RN50_gauss_0_for_90_epoch_epoch90,1,773,NaN,car,clock,0,clock6-chair3.png,
sup_RN50_gauss_0_for_90_epoch_epoch90,1,774,NaN,clock,clock,0,clock6-clock2.png,
sup_RN50_gauss_0_for_90_epoch_epoch90,1,775,NaN,clock,clock,0,clock6-knife2.png,
sup_RN50_gauss_0_for_90_epoch_epoch90,1,776,NaN,oven,clock,0,clock6-oven1.png,
sup_RN50_gauss_0_for_90_epoch_epoch90,1,777,NaN,car,clock,0,clock6-truck3.png,
sup_RN50_gauss_0_for_90_epoch_epoch90,1,778,NaN,bird,clock,0,clock7-bear2.png,
sup_RN50_gauss_0_for_90_epoch_epoch90,1,779,NaN,clock,clock,0,clock7-bicycle1.png,
sup_RN50_gauss_0_for_90_epoch_epoch90,1,780,NaN,clock,clock,0,clock7-boat3.png,
sup_RN50_gauss_0_for_90_epoch_epoch90,1,781,NaN,bottle,clock,0,clock7-bottle2.png,
sup_RN50_gauss_0_for_90_epoch_epoch90,1,782,NaN,boat,clock,0,clock7-car1.png,
sup_RN50_gauss_0_for_90_epoch_epoch90,1,783,NaN,cat,clock,0,clock7-cat2.png,
sup_RN50_gauss_0_for_90_epoch_epoch90,1,784,NaN,clock,clock,0,clock7-dog2.png,
sup_RN50_gauss_0_for_90_epoch_epoch90,1,785,NaN,clock,clock,0,clock7-keyboard2.png,
sup_RN50_gauss_0_for_90_epoch_epoch90,1,786,NaN,car,clock,0,clock7-truck3.png,
sup_RN50_gauss_0_for_90_epoch_epoch90,1,787,NaN,clock,clock,0,clock8-airplane2.png,
sup_RN50_gauss_0_for_90_epoch_epoch90,1,788,NaN,elephant,clock,0,clock8-bear2.png,
sup_RN50_gauss_0_for_90_epoch_epoch90,1,789,NaN,clock,clock,0,clock8-boat1.png,
sup_RN50_gauss_0_for_90_epoch_epoch90,1,790,NaN,bottle,clock,0,clock8-cat1.png,
sup_RN50_gauss_0_for_90_epoch_epoch90,1,791,NaN,clock,clock,0,clock8-chair2.png,
sup_RN50_gauss_0_for_90_epoch_epoch90,1,792,NaN,clock,clock,0,clock8-keyboard1.png,
sup_RN50_gauss_0_for_90_epoch_epoch90,1,793,NaN,clock,clock,0,clock8-knife1.png,
sup_RN50_gauss_0_for_90_epoch_epoch90,1,794,NaN,truck,clock,0,clock8-oven3.png,
sup_RN50_gauss_0_for_90_epoch_epoch90,1,795,NaN,car,clock,0,clock8-truck2.png,
sup_RN50_gauss_0_for_90_epoch_epoch90,1,796,NaN,clock,clock,0,clock9-airplane1.png,
sup_RN50_gauss_0_for_90_epoch_epoch90,1,797,NaN,clock,clock,0,clock9-bird2.png,
sup_RN50_gauss_0_for_90_epoch_epoch90,1,798,NaN,cat,clock,0,clock9-cat1.png,
sup_RN50_gauss_0_for_90_epoch_epoch90,1,799,NaN,car,clock,0,clock9-chair3.png,
sup_RN50_gauss_0_for_90_epoch_epoch90,1,800,NaN,bottle,clock,0,clock9-keyboard2.png,
sup_RN50_gauss_0_for_90_epoch_epoch90,1,801,NaN,airplane,dog,0,dog1-airplane3.png,
sup_RN50_gauss_0_for_90_epoch_epoch90,1,802,NaN,elephant,dog,0,dog1-bear1.png,
sup_RN50_gauss_0_for_90_epoch_epoch90,1,803,NaN,bear,dog,0,dog1-bird1.png,
sup_RN50_gauss_0_for_90_epoch_epoch90,1,804,NaN,clock,dog,0,dog1-boat3.png,
sup_RN50_gauss_0_for_90_epoch_epoch90,1,805,NaN,bottle,dog,0,dog1-car2.png,
sup_RN50_gauss_0_for_90_epoch_epoch90,1,806,NaN,dog,dog,0,dog1-cat3.png,
sup_RN50_gauss_0_for_90_epoch_epoch90,1,807,NaN,car,dog,0,dog1-chair1.png,
sup_RN50_gauss_0_for_90_epoch_epoch90,1,808,NaN,dog,dog,0,dog1-dog2.png,
sup_RN50_gauss_0_for_90_epoch_epoch90,1,809,NaN,clock,dog,0,dog1-knife3.png,
sup_RN50_gauss_0_for_90_epoch_epoch90,1,810,NaN,clock,dog,0,dog10-airplane1.png,
sup_RN50_gauss_0_for_90_epoch_epoch90,1,811,NaN,bicycle,dog,0,dog10-bicycle1.png,
sup_RN50_gauss_0_for_90_epoch_epoch90,1,812,NaN,bottle,dog,0,dog10-bottle1.png,
sup_RN50_gauss_0_for_90_epoch_epoch90,1,813,NaN,car,dog,0,dog10-car3.png,
sup_RN50_gauss_0_for_90_epoch_epoch90,1,814,NaN,clock,dog,0,dog10-clock1.png,
sup_RN50_gauss_0_for_90_epoch_epoch90,1,815,NaN,dog,dog,0,dog10-dog1.png,
sup_RN50_gauss_0_for_90_epoch_epoch90,1,816,NaN,elephant,dog,0,dog10-elephant1.png,
sup_RN50_gauss_0_for_90_epoch_epoch90,1,817,NaN,bottle,dog,0,dog10-keyboard2.png,
sup_RN50_gauss_0_for_90_epoch_epoch90,1,818,NaN,keyboard,dog,0,dog10-oven2.png,
sup_RN50_gauss_0_for_90_epoch_epoch90,1,819,NaN,truck,dog,0,dog10-truck2.png,
sup_RN50_gauss_0_for_90_epoch_epoch90,1,820,NaN,car,dog,0,dog2-airplane2.png,
sup_RN50_gauss_0_for_90_epoch_epoch90,1,821,NaN,bicycle,dog,0,dog2-bicycle2.png,
sup_RN50_gauss_0_for_90_epoch_epoch90,1,822,NaN,bottle,dog,0,dog2-bottle2.png,
sup_RN50_gauss_0_for_90_epoch_epoch90,1,823,NaN,dog,dog,0,dog2-cat1.png,
sup_RN50_gauss_0_for_90_epoch_epoch90,1,824,NaN,dog,dog,0,dog2-dog3.png,
sup_RN50_gauss_0_for_90_epoch_epoch90,1,825,NaN,knife,dog,0,dog2-knife3.png,
sup_RN50_gauss_0_for_90_epoch_epoch90,1,826,NaN,bear,dog,0,dog3-bear3.png,
sup_RN50_gauss_0_for_90_epoch_epoch90,1,827,NaN,dog,dog,0,dog3-bird2.png,
sup_RN50_gauss_0_for_90_epoch_epoch90,1,828,NaN,boat,dog,0,dog3-boat1.png,
sup_RN50_gauss_0_for_90_epoch_epoch90,1,829,NaN,clock,dog,0,dog3-clock1.png,
sup_RN50_gauss_0_for_90_epoch_epoch90,1,830,NaN,bear,dog,0,dog3-dog1.png,
sup_RN50_gauss_0_for_90_epoch_epoch90,1,831,NaN,elephant,dog,0,dog3-elephant2.png,
sup_RN50_gauss_0_for_90_epoch_epoch90,1,832,NaN,keyboard,dog,0,dog3-keyboard1.png,
sup_RN50_gauss_0_for_90_epoch_epoch90,1,833,NaN,knife,dog,0,dog3-knife3.png,
sup_RN50_gauss_0_for_90_epoch_epoch90,1,834,NaN,bottle,dog,0,dog3-truck2.png,
sup_RN50_gauss_0_for_90_epoch_epoch90,1,835,NaN,bottle,dog,0,dog4-airplane3.png,
sup_RN50_gauss_0_for_90_epoch_epoch90,1,836,NaN,bicycle,dog,0,dog4-bicycle1.png,
sup_RN50_gauss_0_for_90_epoch_epoch90,1,837,NaN,bird,dog,0,dog4-bird1.png,
sup_RN50_gauss_0_for_90_epoch_epoch90,1,838,NaN,bottle,dog,0,dog4-bottle2.png,
sup_RN50_gauss_0_for_90_epoch_epoch90,1,839,NaN,dog,dog,0,dog4-cat3.png,
sup_RN50_gauss_0_for_90_epoch_epoch90,1,840,NaN,keyboard,dog,0,dog4-chair1.png,
sup_RN50_gauss_0_for_90_epoch_epoch90,1,841,NaN,clock,dog,0,dog4-clock1.png,
sup_RN50_gauss_0_for_90_epoch_epoch90,1,842,NaN,elephant,dog,0,dog4-elephant2.png,
sup_RN50_gauss_0_for_90_epoch_epoch90,1,843,NaN,clock,dog,0,dog4-keyboard2.png,
sup_RN50_gauss_0_for_90_epoch_epoch90,1,844,NaN,bottle,dog,0,dog4-oven1.png,
sup_RN50_gauss_0_for_90_epoch_epoch90,1,845,NaN,car,dog,0,dog4-truck2.png,
sup_RN50_gauss_0_for_90_epoch_epoch90,1,846,NaN,bear,dog,0,dog5-bear3.png,
sup_RN50_gauss_0_for_90_epoch_epoch90,1,847,NaN,truck,dog,0,dog5-boat3.png,
sup_RN50_gauss_0_for_90_epoch_epoch90,1,848,NaN,car,dog,0,dog5-car3.png,
sup_RN50_gauss_0_for_90_epoch_epoch90,1,849,NaN,elephant,dog,0,dog5-elephant1.png,
sup_RN50_gauss_0_for_90_epoch_epoch90,1,850,NaN,bottle,dog,0,dog5-knife2.png,
sup_RN50_gauss_0_for_90_epoch_epoch90,1,851,NaN,keyboard,dog,0,dog5-oven1.png,
sup_RN50_gauss_0_for_90_epoch_epoch90,1,852,NaN,bottle,dog,0,dog5-truck2.png,
sup_RN50_gauss_0_for_90_epoch_epoch90,1,853,NaN,bicycle,dog,0,dog6-bicycle1.png,
sup_RN50_gauss_0_for_90_epoch_epoch90,1,854,NaN,bottle,dog,0,dog6-bird1.png,
sup_RN50_gauss_0_for_90_epoch_epoch90,1,855,NaN,dog,dog,0,dog6-cat1.png,
sup_RN50_gauss_0_for_90_epoch_epoch90,1,856,NaN,clock,dog,0,dog6-clock1.png,
sup_RN50_gauss_0_for_90_epoch_epoch90,1,857,NaN,elephant,dog,0,dog6-elephant2.png,
sup_RN50_gauss_0_for_90_epoch_epoch90,1,858,NaN,bottle,dog,0,dog6-truck2.png,
sup_RN50_gauss_0_for_90_epoch_epoch90,1,859,NaN,knife,dog,0,dog7-bird3.png,
sup_RN50_gauss_0_for_90_epoch_epoch90,1,860,NaN,boat,dog,0,dog7-car2.png,
sup_RN50_gauss_0_for_90_epoch_epoch90,1,861,NaN,chair,dog,0,dog7-chair2.png,
sup_RN50_gauss_0_for_90_epoch_epoch90,1,862,NaN,bottle,dog,0,dog7-keyboard3.png,
sup_RN50_gauss_0_for_90_epoch_epoch90,1,863,NaN,knife,dog,0,dog7-knife3.png,
sup_RN50_gauss_0_for_90_epoch_epoch90,1,864,NaN,keyboard,dog,0,dog7-oven2.png,
sup_RN50_gauss_0_for_90_epoch_epoch90,1,865,NaN,bear,dog,0,dog8-bear3.png,
sup_RN50_gauss_0_for_90_epoch_epoch90,1,866,NaN,bottle,dog,0,dog8-boat3.png,
sup_RN50_gauss_0_for_90_epoch_epoch90,1,867,NaN,bottle,dog,0,dog8-bottle2.png,
sup_RN50_gauss_0_for_90_epoch_epoch90,1,868,NaN,chair,dog,0,dog8-chair3.png,
sup_RN50_gauss_0_for_90_epoch_epoch90,1,869,NaN,bottle,dog,0,dog8-clock2.png,
sup_RN50_gauss_0_for_90_epoch_epoch90,1,870,NaN,dog,dog,0,dog8-dog3.png,
sup_RN50_gauss_0_for_90_epoch_epoch90,1,871,NaN,bottle,dog,0,dog8-keyboard3.png,
sup_RN50_gauss_0_for_90_epoch_epoch90,1,872,NaN,knife,dog,0,dog8-oven3.png,
sup_RN50_gauss_0_for_90_epoch_epoch90,1,873,NaN,bottle,dog,0,dog9-airplane3.png,
sup_RN50_gauss_0_for_90_epoch_epoch90,1,874,NaN,bear,dog,0,dog9-bear3.png,
sup_RN50_gauss_0_for_90_epoch_epoch90,1,875,NaN,knife,dog,0,dog9-bicycle3.png,
sup_RN50_gauss_0_for_90_epoch_epoch90,1,876,NaN,boat,dog,0,dog9-boat1.png,
sup_RN50_gauss_0_for_90_epoch_epoch90,1,877,NaN,bottle,dog,0,dog9-bottle1.png,
sup_RN50_gauss_0_for_90_epoch_epoch90,1,878,NaN,boat,dog,0,dog9-car1.png,
sup_RN50_gauss_0_for_90_epoch_epoch90,1,879,NaN,dog,dog,0,dog9-cat1.png,
sup_RN50_gauss_0_for_90_epoch_epoch90,1,880,NaN,chair,dog,0,dog9-chair2.png,
sup_RN50_gauss_0_for_90_epoch_epoch90,1,881,NaN,car,elephant,0,elephant1-airplane2.png,
sup_RN50_gauss_0_for_90_epoch_epoch90,1,882,NaN,elephant,elephant,0,elephant1-bear2.png,
sup_RN50_gauss_0_for_90_epoch_epoch90,1,883,NaN,boat,elephant,0,elephant1-boat2.png,
sup_RN50_gauss_0_for_90_epoch_epoch90,1,884,NaN,bottle,elephant,0,elephant1-bottle1.png,
sup_RN50_gauss_0_for_90_epoch_epoch90,1,885,NaN,car,elephant,0,elephant1-car3.png,
sup_RN50_gauss_0_for_90_epoch_epoch90,1,886,NaN,car,elephant,0,elephant1-chair1.png,
sup_RN50_gauss_0_for_90_epoch_epoch90,1,887,NaN,dog,elephant,0,elephant1-dog2.png,
sup_RN50_gauss_0_for_90_epoch_epoch90,1,888,NaN,clock,elephant,0,elephant1-keyboard3.png,
sup_RN50_gauss_0_for_90_epoch_epoch90,1,889,NaN,oven,elephant,0,elephant1-oven2.png,
sup_RN50_gauss_0_for_90_epoch_epoch90,1,890,NaN,bear,elephant,0,elephant10-bear1.png,
sup_RN50_gauss_0_for_90_epoch_epoch90,1,891,NaN,elephant,elephant,0,elephant10-elephant1.png,
sup_RN50_gauss_0_for_90_epoch_epoch90,1,892,NaN,bottle,elephant,0,elephant10-keyboard1.png,
sup_RN50_gauss_0_for_90_epoch_epoch90,1,893,NaN,knife,elephant,0,elephant10-knife3.png,
sup_RN50_gauss_0_for_90_epoch_epoch90,1,894,NaN,knife,elephant,0,elephant2-airplane3.png,
sup_RN50_gauss_0_for_90_epoch_epoch90,1,895,NaN,bear,elephant,0,elephant2-bear3.png,
sup_RN50_gauss_0_for_90_epoch_epoch90,1,896,NaN,bird,elephant,0,elephant2-bird1.png,
sup_RN50_gauss_0_for_90_epoch_epoch90,1,897,NaN,bottle,elephant,0,elephant2-boat1.png,
sup_RN50_gauss_0_for_90_epoch_epoch90,1,898,NaN,bottle,elephant,0,elephant2-bottle3.png,
sup_RN50_gauss_0_for_90_epoch_epoch90,1,899,NaN,cat,elephant,0,elephant2-cat1.png,
sup_RN50_gauss_0_for_90_epoch_epoch90,1,900,NaN,clock,elephant,0,elephant2-clock1.png,
sup_RN50_gauss_0_for_90_epoch_epoch90,1,901,NaN,elephant,elephant,0,elephant2-elephant3.png,
sup_RN50_gauss_0_for_90_epoch_epoch90,1,902,NaN,clock,elephant,0,elephant2-keyboard3.png,
sup_RN50_gauss_0_for_90_epoch_epoch90,1,903,NaN,car,elephant,0,elephant2-truck2.png,
sup_RN50_gauss_0_for_90_epoch_epoch90,1,904,NaN,cat,elephant,0,elephant3-cat2.png,
sup_RN50_gauss_0_for_90_epoch_epoch90,1,905,NaN,chair,elephant,0,elephant3-chair1.png,
sup_RN50_gauss_0_for_90_epoch_epoch90,1,906,NaN,bottle,elephant,0,elephant3-keyboard2.png,
sup_RN50_gauss_0_for_90_epoch_epoch90,1,907,NaN,bottle,elephant,0,elephant3-knife1.png,
sup_RN50_gauss_0_for_90_epoch_epoch90,1,908,NaN,truck,elephant,0,elephant3-oven1.png,
sup_RN50_gauss_0_for_90_epoch_epoch90,1,909,NaN,bottle,elephant,0,elephant3-truck1.png,
sup_RN50_gauss_0_for_90_epoch_epoch90,1,910,NaN,bicycle,elephant,0,elephant4-bicycle2.png,
sup_RN50_gauss_0_for_90_epoch_epoch90,1,911,NaN,bird,elephant,0,elephant4-bird1.png,
sup_RN50_gauss_0_for_90_epoch_epoch90,1,912,NaN,truck,elephant,0,elephant4-boat3.png,
sup_RN50_gauss_0_for_90_epoch_epoch90,1,913,NaN,truck,elephant,0,elephant4-car3.png,
sup_RN50_gauss_0_for_90_epoch_epoch90,1,914,NaN,chair,elephant,0,elephant4-chair3.png,
sup_RN50_gauss_0_for_90_epoch_epoch90,1,915,NaN,clock,elephant,0,elephant4-clock3.png,
sup_RN50_gauss_0_for_90_epoch_epoch90,1,916,NaN,knife,elephant,0,elephant4-oven1.png,
sup_RN50_gauss_0_for_90_epoch_epoch90,1,917,NaN,bear,elephant,0,elephant5-bear2.png,
sup_RN50_gauss_0_for_90_epoch_epoch90,1,918,NaN,knife,elephant,0,elephant5-bicycle3.png,
sup_RN50_gauss_0_for_90_epoch_epoch90,1,919,NaN,bottle,elephant,0,elephant5-bottle2.png,
sup_RN50_gauss_0_for_90_epoch_epoch90,1,920,NaN,car,elephant,0,elephant5-car1.png,
sup_RN50_gauss_0_for_90_epoch_epoch90,1,921,NaN,car,elephant,0,elephant5-chair3.png,
sup_RN50_gauss_0_for_90_epoch_epoch90,1,922,NaN,elephant,elephant,0,elephant5-elephant1.png,
sup_RN50_gauss_0_for_90_epoch_epoch90,1,923,NaN,bottle,elephant,0,elephant5-truck1.png,
sup_RN50_gauss_0_for_90_epoch_epoch90,1,924,NaN,bicycle,elephant,0,elephant6-bicycle1.png,
sup_RN50_gauss_0_for_90_epoch_epoch90,1,925,NaN,bird,elephant,0,elephant6-bird1.png,
sup_RN50_gauss_0_for_90_epoch_epoch90,1,926,NaN,bottle,elephant,0,elephant6-bottle2.png,
sup_RN50_gauss_0_for_90_epoch_epoch90,1,927,NaN,car,elephant,0,elephant6-car3.png,
sup_RN50_gauss_0_for_90_epoch_epoch90,1,928,NaN,cat,elephant,0,elephant6-cat2.png,
sup_RN50_gauss_0_for_90_epoch_epoch90,1,929,NaN,dog,elephant,0,elephant6-dog2.png,
sup_RN50_gauss_0_for_90_epoch_epoch90,1,930,NaN,knife,elephant,0,elephant6-knife2.png,
sup_RN50_gauss_0_for_90_epoch_epoch90,1,931,NaN,knife,elephant,0,elephant6-oven1.png,
sup_RN50_gauss_0_for_90_epoch_epoch90,1,932,NaN,truck,elephant,0,elephant6-truck3.png,
sup_RN50_gauss_0_for_90_epoch_epoch90,1,933,NaN,airplane,elephant,0,elephant7-airplane3.png,
sup_RN50_gauss_0_for_90_epoch_epoch90,1,934,NaN,bear,elephant,0,elephant7-bear3.png,
sup_RN50_gauss_0_for_90_epoch_epoch90,1,935,NaN,bird,elephant,0,elephant7-bird1.png,
sup_RN50_gauss_0_for_90_epoch_epoch90,1,936,NaN,bottle,elephant,0,elephant7-bottle3.png,
sup_RN50_gauss_0_for_90_epoch_epoch90,1,937,NaN,car,elephant,0,elephant7-car3.png,
sup_RN50_gauss_0_for_90_epoch_epoch90,1,938,NaN,dog,elephant,0,elephant7-cat1.png,
sup_RN50_gauss_0_for_90_epoch_epoch90,1,939,NaN,clock,elephant,0,elephant7-clock2.png,
sup_RN50_gauss_0_for_90_epoch_epoch90,1,940,NaN,bottle,elephant,0,elephant7-dog1.png,
sup_RN50_gauss_0_for_90_epoch_epoch90,1,941,NaN,keyboard,elephant,0,elephant7-keyboard3.png,
sup_RN50_gauss_0_for_90_epoch_epoch90,1,942,NaN,oven,elephant,0,elephant7-knife2.png,
sup_RN50_gauss_0_for_90_epoch_epoch90,1,943,NaN,airplane,elephant,0,elephant8-airplane3.png,
sup_RN50_gauss_0_for_90_epoch_epoch90,1,944,NaN,bottle,elephant,0,elephant8-bicycle3.png,
sup_RN50_gauss_0_for_90_epoch_epoch90,1,945,NaN,elephant,elephant,0,elephant8-bird2.png,
sup_RN50_gauss_0_for_90_epoch_epoch90,1,946,NaN,boat,elephant,0,elephant8-boat2.png,
sup_RN50_gauss_0_for_90_epoch_epoch90,1,947,NaN,cat,elephant,0,elephant8-cat1.png,
sup_RN50_gauss_0_for_90_epoch_epoch90,1,948,NaN,clock,elephant,0,elephant8-clock2.png,
sup_RN50_gauss_0_for_90_epoch_epoch90,1,949,NaN,dog,elephant,0,elephant8-dog1.png,
sup_RN50_gauss_0_for_90_epoch_epoch90,1,950,NaN,elephant,elephant,0,elephant8-elephant1.png,
sup_RN50_gauss_0_for_90_epoch_epoch90,1,951,NaN,knife,elephant,0,elephant8-knife2.png,
sup_RN50_gauss_0_for_90_epoch_epoch90,1,952,NaN,elephant,elephant,0,elephant8-oven3.png,
sup_RN50_gauss_0_for_90_epoch_epoch90,1,953,NaN,truck,elephant,0,elephant8-truck3.png,
sup_RN50_gauss_0_for_90_epoch_epoch90,1,954,NaN,car,elephant,0,elephant9-airplane2.png,
sup_RN50_gauss_0_for_90_epoch_epoch90,1,955,NaN,bicycle,elephant,0,elephant9-bicycle2.png,
sup_RN50_gauss_0_for_90_epoch_epoch90,1,956,NaN,clock,elephant,0,elephant9-boat3.png,
sup_RN50_gauss_0_for_90_epoch_epoch90,1,957,NaN,chair,elephant,0,elephant9-chair2.png,
sup_RN50_gauss_0_for_90_epoch_epoch90,1,958,NaN,clock,elephant,0,elephant9-clock3.png,
sup_RN50_gauss_0_for_90_epoch_epoch90,1,959,NaN,dog,elephant,0,elephant9-dog3.png,
sup_RN50_gauss_0_for_90_epoch_epoch90,1,960,NaN,elephant,elephant,0,elephant9-elephant3.png,
sup_RN50_gauss_0_for_90_epoch_epoch90,1,961,NaN,car,keyboard,0,keyboard1-airplane2.png,
sup_RN50_gauss_0_for_90_epoch_epoch90,1,962,NaN,bear,keyboard,0,keyboard1-bear2.png,
sup_RN50_gauss_0_for_90_epoch_epoch90,1,963,NaN,bird,keyboard,0,keyboard1-bird2.png,
sup_RN50_gauss_0_for_90_epoch_epoch90,1,964,NaN,car,keyboard,0,keyboard1-car3.png,
sup_RN50_gauss_0_for_90_epoch_epoch90,1,965,NaN,bottle,keyboard,0,keyboard1-chair2.png,
sup_RN50_gauss_0_for_90_epoch_epoch90,1,966,NaN,clock,keyboard,0,keyboard1-clock1.png,
sup_RN50_gauss_0_for_90_epoch_epoch90,1,967,NaN,dog,keyboard,0,keyboard1-dog3.png,
sup_RN50_gauss_0_for_90_epoch_epoch90,1,968,NaN,elephant,keyboard,0,keyboard1-elephant3.png,
sup_RN50_gauss_0_for_90_epoch_epoch90,1,969,NaN,airplane,keyboard,0,keyboard10-airplane3.png,
sup_RN50_gauss_0_for_90_epoch_epoch90,1,970,NaN,boat,keyboard,0,keyboard10-boat2.png,
sup_RN50_gauss_0_for_90_epoch_epoch90,1,971,NaN,car,keyboard,0,keyboard10-car1.png,
sup_RN50_gauss_0_for_90_epoch_epoch90,1,972,NaN,bicycle,keyboard,0,keyboard10-keyboard1.png,
sup_RN50_gauss_0_for_90_epoch_epoch90,1,973,NaN,knife,keyboard,0,keyboard10-oven3.png,
sup_RN50_gauss_0_for_90_epoch_epoch90,1,974,NaN,bottle,keyboard,0,keyboard10-truck1.png,
sup_RN50_gauss_0_for_90_epoch_epoch90,1,975,NaN,bird,keyboard,0,keyboard2-bicycle3.png,
sup_RN50_gauss_0_for_90_epoch_epoch90,1,976,NaN,bottle,keyboard,0,keyboard2-bottle1.png,
sup_RN50_gauss_0_for_90_epoch_epoch90,1,977,NaN,clock,keyboard,0,keyboard2-clock1.png,
sup_RN50_gauss_0_for_90_epoch_epoch90,1,978,NaN,elephant,keyboard,0,keyboard2-elephant1.png,
sup_RN50_gauss_0_for_90_epoch_epoch90,1,979,NaN,bottle,keyboard,0,keyboard2-knife1.png,
sup_RN50_gauss_0_for_90_epoch_epoch90,1,980,NaN,bottle,keyboard,0,keyboard3-bicycle2.png,
sup_RN50_gauss_0_for_90_epoch_epoch90,1,981,NaN,oven,keyboard,0,keyboard3-bird3.png,
sup_RN50_gauss_0_for_90_epoch_epoch90,1,982,NaN,boat,keyboard,0,keyboard3-boat1.png,
sup_RN50_gauss_0_for_90_epoch_epoch90,1,983,NaN,bottle,keyboard,0,keyboard3-car2.png,
sup_RN50_gauss_0_for_90_epoch_epoch90,1,984,NaN,cat,keyboard,0,keyboard3-cat1.png,
sup_RN50_gauss_0_for_90_epoch_epoch90,1,985,NaN,clock,keyboard,0,keyboard3-clock3.png,
sup_RN50_gauss_0_for_90_epoch_epoch90,1,986,NaN,elephant,keyboard,0,keyboard3-elephant2.png,
sup_RN50_gauss_0_for_90_epoch_epoch90,1,987,NaN,bird,keyboard,0,keyboard4-bird1.png,
sup_RN50_gauss_0_for_90_epoch_epoch90,1,988,NaN,bottle,keyboard,0,keyboard4-bottle2.png,
sup_RN50_gauss_0_for_90_epoch_epoch90,1,989,NaN,cat,keyboard,0,keyboard4-cat2.png,
sup_RN50_gauss_0_for_90_epoch_epoch90,1,990,NaN,clock,keyboard,0,keyboard4-clock2.png,
sup_RN50_gauss_0_for_90_epoch_epoch90,1,991,NaN,bottle,keyboard,0,keyboard4-keyboard2.png,
sup_RN50_gauss_0_for_90_epoch_epoch90,1,992,NaN,knife,keyboard,0,keyboard4-knife2.png,
sup_RN50_gauss_0_for_90_epoch_epoch90,1,993,NaN,keyboard,keyboard,0,keyboard4-oven2.png,
sup_RN50_gauss_0_for_90_epoch_epoch90,1,994,NaN,boat,keyboard,0,keyboard4-truck3.png,
sup_RN50_gauss_0_for_90_epoch_epoch90,1,995,NaN,keyboard,keyboard,0,keyboard5-airplane3.png,
sup_RN50_gauss_0_for_90_epoch_epoch90,1,996,NaN,bear,keyboard,0,keyboard5-bear3.png,
sup_RN50_gauss_0_for_90_epoch_epoch90,1,997,NaN,bicycle,keyboard,0,keyboard5-bicycle1.png,
sup_RN50_gauss_0_for_90_epoch_epoch90,1,998,NaN,keyboard,keyboard,0,keyboard5-bird3.png,
sup_RN50_gauss_0_for_90_epoch_epoch90,1,999,NaN,bottle,keyboard,0,keyboard5-bottle1.png,
sup_RN50_gauss_0_for_90_epoch_epoch90,1,1000,NaN,cat,keyboard,0,keyboard5-cat1.png,
sup_RN50_gauss_0_for_90_epoch_epoch90,1,1001,NaN,dog,keyboard,0,keyboard5-dog3.png,
sup_RN50_gauss_0_for_90_epoch_epoch90,1,1002,NaN,keyboard,keyboard,0,keyboard5-keyboard1.png,
sup_RN50_gauss_0_for_90_epoch_epoch90,1,1003,NaN,knife,keyboard,0,keyboard5-knife2.png,
sup_RN50_gauss_0_for_90_epoch_epoch90,1,1004,NaN,keyboard,keyboard,0,keyboard5-oven2.png,
sup_RN50_gauss_0_for_90_epoch_epoch90,1,1005,NaN,bear,keyboard,0,keyboard6-bear2.png,
sup_RN50_gauss_0_for_90_epoch_epoch90,1,1006,NaN,bicycle,keyboard,0,keyboard6-bicycle1.png,
sup_RN50_gauss_0_for_90_epoch_epoch90,1,1007,NaN,boat,keyboard,0,keyboard6-boat2.png,
sup_RN50_gauss_0_for_90_epoch_epoch90,1,1008,NaN,bottle,keyboard,0,keyboard6-bottle2.png,
sup_RN50_gauss_0_for_90_epoch_epoch90,1,1009,NaN,knife,keyboard,0,keyboard6-car2.png,
sup_RN50_gauss_0_for_90_epoch_epoch90,1,1010,NaN,car,keyboard,0,keyboard6-chair1.png,
sup_RN50_gauss_0_for_90_epoch_epoch90,1,1011,NaN,bird,keyboard,0,keyboard6-dog2.png,
sup_RN50_gauss_0_for_90_epoch_epoch90,1,1012,NaN,elephant,keyboard,0,keyboard6-elephant1.png,
sup_RN50_gauss_0_for_90_epoch_epoch90,1,1013,NaN,knife,keyboard,0,keyboard6-knife2.png,
sup_RN50_gauss_0_for_90_epoch_epoch90,1,1014,NaN,bear,keyboard,0,keyboard7-bear2.png,
sup_RN50_gauss_0_for_90_epoch_epoch90,1,1015,NaN,boat,keyboard,0,keyboard7-boat2.png,
sup_RN50_gauss_0_for_90_epoch_epoch90,1,1016,NaN,bottle,keyboard,0,keyboard7-bottle1.png,
sup_RN50_gauss_0_for_90_epoch_epoch90,1,1017,NaN,car,keyboard,0,keyboard7-car3.png,
sup_RN50_gauss_0_for_90_epoch_epoch90,1,1018,NaN,chair,keyboard,0,keyboard7-chair3.png,
sup_RN50_gauss_0_for_90_epoch_epoch90,1,1019,NaN,clock,keyboard,0,keyboard7-clock3.png,
sup_RN50_gauss_0_for_90_epoch_epoch90,1,1020,NaN,bear,keyboard,0,keyboard7-dog1.png,
sup_RN50_gauss_0_for_90_epoch_epoch90,1,1021,NaN,knife,keyboard,0,keyboard7-knife1.png,
sup_RN50_gauss_0_for_90_epoch_epoch90,1,1022,NaN,keyboard,keyboard,0,keyboard7-oven2.png,
sup_RN50_gauss_0_for_90_epoch_epoch90,1,1023,NaN,car,keyboard,0,keyboard7-truck2.png,
sup_RN50_gauss_0_for_90_epoch_epoch90,1,1024,NaN,keyboard,keyboard,0,keyboard8-airplane2.png,
sup_RN50_gauss_0_for_90_epoch_epoch90,1,1025,NaN,dog,keyboard,0,keyboard8-cat3.png,
sup_RN50_gauss_0_for_90_epoch_epoch90,1,1026,NaN,chair,keyboard,0,keyboard8-chair2.png,
sup_RN50_gauss_0_for_90_epoch_epoch90,1,1027,NaN,dog,keyboard,0,keyboard8-dog3.png,
sup_RN50_gauss_0_for_90_epoch_epoch90,1,1028,NaN,keyboard,keyboard,0,keyboard8-keyboard2.png,
sup_RN50_gauss_0_for_90_epoch_epoch90,1,1029,NaN,keyboard,keyboard,0,keyboard8-oven1.png,
sup_RN50_gauss_0_for_90_epoch_epoch90,1,1030,NaN,boat,keyboard,0,keyboard8-truck3.png,
sup_RN50_gauss_0_for_90_epoch_epoch90,1,1031,NaN,airplane,keyboard,0,keyboard9-airplane3.png,
sup_RN50_gauss_0_for_90_epoch_epoch90,1,1032,NaN,bear,keyboard,0,keyboard9-bear2.png,
sup_RN50_gauss_0_for_90_epoch_epoch90,1,1033,NaN,bottle,keyboard,0,keyboard9-bicycle2.png,
sup_RN50_gauss_0_for_90_epoch_epoch90,1,1034,NaN,bird,keyboard,0,keyboard9-bird1.png,
sup_RN50_gauss_0_for_90_epoch_epoch90,1,1035,NaN,boat,keyboard,0,keyboard9-boat2.png,
sup_RN50_gauss_0_for_90_epoch_epoch90,1,1036,NaN,cat,keyboard,0,keyboard9-cat1.png,
sup_RN50_gauss_0_for_90_epoch_epoch90,1,1037,NaN,chair,keyboard,0,keyboard9-chair2.png,
sup_RN50_gauss_0_for_90_epoch_epoch90,1,1038,NaN,elephant,keyboard,0,keyboard9-elephant2.png,
sup_RN50_gauss_0_for_90_epoch_epoch90,1,1039,NaN,bottle,keyboard,0,keyboard9-keyboard2.png,
sup_RN50_gauss_0_for_90_epoch_epoch90,1,1040,NaN,boat,keyboard,0,keyboard9-truck3.png,
sup_RN50_gauss_0_for_90_epoch_epoch90,1,1041,NaN,airplane,knife,0,knife1-airplane1.png,
sup_RN50_gauss_0_for_90_epoch_epoch90,1,1042,NaN,bottle,knife,0,knife1-bird2.png,
sup_RN50_gauss_0_for_90_epoch_epoch90,1,1043,NaN,car,knife,0,knife1-car3.png,
sup_RN50_gauss_0_for_90_epoch_epoch90,1,1044,NaN,car,knife,0,knife1-chair1.png,
sup_RN50_gauss_0_for_90_epoch_epoch90,1,1045,NaN,clock,knife,0,knife1-clock2.png,
sup_RN50_gauss_0_for_90_epoch_epoch90,1,1046,NaN,dog,knife,0,knife1-dog1.png,
sup_RN50_gauss_0_for_90_epoch_epoch90,1,1047,NaN,elephant,knife,0,knife1-elephant1.png,
sup_RN50_gauss_0_for_90_epoch_epoch90,1,1048,NaN,keyboard,knife,0,knife1-keyboard3.png,
sup_RN50_gauss_0_for_90_epoch_epoch90,1,1049,NaN,boat,knife,0,knife1-oven1.png,
sup_RN50_gauss_0_for_90_epoch_epoch90,1,1050,NaN,truck,knife,0,knife1-truck2.png,
sup_RN50_gauss_0_for_90_epoch_epoch90,1,1051,NaN,bear,knife,0,knife10-bear3.png,
sup_RN50_gauss_0_for_90_epoch_epoch90,1,1052,NaN,keyboard,knife,0,knife10-chair1.png,
sup_RN50_gauss_0_for_90_epoch_epoch90,1,1053,NaN,bear,knife,0,knife10-dog1.png,
sup_RN50_gauss_0_for_90_epoch_epoch90,1,1054,NaN,elephant,knife,0,knife10-elephant3.png,
sup_RN50_gauss_0_for_90_epoch_epoch90,1,1055,NaN,knife,knife,0,knife10-keyboard3.png,
sup_RN50_gauss_0_for_90_epoch_epoch90,1,1056,NaN,bottle,knife,0,knife10-knife1.png,
sup_RN50_gauss_0_for_90_epoch_epoch90,1,1057,NaN,truck,knife,0,knife10-oven3.png,
sup_RN50_gauss_0_for_90_epoch_epoch90,1,1058,NaN,bear,knife,0,knife2-bear2.png,
sup_RN50_gauss_0_for_90_epoch_epoch90,1,1059,NaN,knife,knife,0,knife2-bicycle3.png,
sup_RN50_gauss_0_for_90_epoch_epoch90,1,1060,NaN,bird,knife,0,knife2-bird1.png,
sup_RN50_gauss_0_for_90_epoch_epoch90,1,1061,NaN,bottle,knife,0,knife2-bottle2.png,
sup_RN50_gauss_0_for_90_epoch_epoch90,1,1062,NaN,car,knife,0,knife2-car3.png,
sup_RN50_gauss_0_for_90_epoch_epoch90,1,1063,NaN,bird,knife,0,knife2-cat3.png,
sup_RN50_gauss_0_for_90_epoch_epoch90,1,1064,NaN,dog,knife,0,knife2-dog1.png,
sup_RN50_gauss_0_for_90_epoch_epoch90,1,1065,NaN,elephant,knife,0,knife2-elephant2.png,
sup_RN50_gauss_0_for_90_epoch_epoch90,1,1066,NaN,truck,knife,0,knife2-truck2.png,
sup_RN50_gauss_0_for_90_epoch_epoch90,1,1067,NaN,bear,knife,0,knife3-bear2.png,
sup_RN50_gauss_0_for_90_epoch_epoch90,1,1068,NaN,cat,knife,0,knife3-cat1.png,
sup_RN50_gauss_0_for_90_epoch_epoch90,1,1069,NaN,clock,knife,0,knife3-clock2.png,
sup_RN50_gauss_0_for_90_epoch_epoch90,1,1070,NaN,bottle,knife,0,knife3-keyboard3.png,
sup_RN50_gauss_0_for_90_epoch_epoch90,1,1071,NaN,knife,knife,0,knife3-knife1.png,
sup_RN50_gauss_0_for_90_epoch_epoch90,1,1072,NaN,airplane,knife,0,knife4-airplane3.png,
sup_RN50_gauss_0_for_90_epoch_epoch90,1,1073,NaN,cat,knife,0,knife4-bear1.png,
sup_RN50_gauss_0_for_90_epoch_epoch90,1,1074,NaN,airplane,knife,0,knife4-boat1.png,
sup_RN50_gauss_0_for_90_epoch_epoch90,1,1075,NaN,boat,knife,0,knife4-car2.png,
sup_RN50_gauss_0_for_90_epoch_epoch90,1,1076,NaN,cat,knife,0,knife4-cat2.png,
sup_RN50_gauss_0_for_90_epoch_epoch90,1,1077,NaN,bottle,knife,0,knife4-clock3.png,
sup_RN50_gauss_0_for_90_epoch_epoch90,1,1078,NaN,bottle,knife,0,knife4-keyboard1.png,
sup_RN50_gauss_0_for_90_epoch_epoch90,1,1079,NaN,oven,knife,0,knife4-knife2.png,
sup_RN50_gauss_0_for_90_epoch_epoch90,1,1080,NaN,keyboard,knife,0,knife4-oven2.png,
sup_RN50_gauss_0_for_90_epoch_epoch90,1,1081,NaN,bottle,knife,0,knife5-bicycle2.png,
sup_RN50_gauss_0_for_90_epoch_epoch90,1,1082,NaN,cat,knife,0,knife5-cat2.png,
sup_RN50_gauss_0_for_90_epoch_epoch90,1,1083,NaN,clock,knife,0,knife5-clock1.png,
sup_RN50_gauss_0_for_90_epoch_epoch90,1,1084,NaN,dog,knife,0,knife5-dog1.png,
sup_RN50_gauss_0_for_90_epoch_epoch90,1,1085,NaN,keyboard,knife,0,knife5-keyboard3.png,
sup_RN50_gauss_0_for_90_epoch_epoch90,1,1086,NaN,knife,knife,0,knife5-knife3.png,
sup_RN50_gauss_0_for_90_epoch_epoch90,1,1087,NaN,bottle,knife,0,knife5-oven2.png,
sup_RN50_gauss_0_for_90_epoch_epoch90,1,1088,NaN,truck,knife,0,knife5-truck3.png,
sup_RN50_gauss_0_for_90_epoch_epoch90,1,1089,NaN,clock,knife,0,knife6-airplane1.png,
sup_RN50_gauss_0_for_90_epoch_epoch90,1,1090,NaN,bicycle,knife,0,knife6-bicycle1.png,
sup_RN50_gauss_0_for_90_epoch_epoch90,1,1091,NaN,bottle,knife,0,knife6-bird1.png,
sup_RN50_gauss_0_for_90_epoch_epoch90,1,1092,NaN,bottle,knife,0,knife6-boat3.png,
sup_RN50_gauss_0_for_90_epoch_epoch90,1,1093,NaN,bottle,knife,0,knife6-bottle3.png,
sup_RN50_gauss_0_for_90_epoch_epoch90,1,1094,NaN,chair,knife,0,knife6-chair3.png,
sup_RN50_gauss_0_for_90_epoch_epoch90,1,1095,NaN,clock,knife,0,knife6-clock2.png,
sup_RN50_gauss_0_for_90_epoch_epoch90,1,1096,NaN,dog,knife,0,knife6-dog2.png,
sup_RN50_gauss_0_for_90_epoch_epoch90,1,1097,NaN,bottle,knife,0,knife6-knife1.png,
sup_RN50_gauss_0_for_90_epoch_epoch90,1,1098,NaN,truck,knife,0,knife6-oven3.png,
sup_RN50_gauss_0_for_90_epoch_epoch90,1,1099,NaN,bottle,knife,0,knife6-truck1.png,
sup_RN50_gauss_0_for_90_epoch_epoch90,1,1100,NaN,airplane,knife,0,knife7-airplane3.png,
sup_RN50_gauss_0_for_90_epoch_epoch90,1,1101,NaN,oven,knife,0,knife7-bird3.png,
sup_RN50_gauss_0_for_90_epoch_epoch90,1,1102,NaN,truck,knife,0,knife7-boat3.png,
sup_RN50_gauss_0_for_90_epoch_epoch90,1,1103,NaN,bottle,knife,0,knife7-bottle3.png,
sup_RN50_gauss_0_for_90_epoch_epoch90,1,1104,NaN,boat,knife,0,knife7-car2.png,
sup_RN50_gauss_0_for_90_epoch_epoch90,1,1105,NaN,chair,knife,0,knife7-chair2.png,
sup_RN50_gauss_0_for_90_epoch_epoch90,1,1106,NaN,elephant,knife,0,knife7-elephant2.png,
sup_RN50_gauss_0_for_90_epoch_epoch90,1,1107,NaN,bicycle,knife,0,knife8-bicycle1.png,
sup_RN50_gauss_0_for_90_epoch_epoch90,1,1108,NaN,boat,knife,0,knife8-boat1.png,
sup_RN50_gauss_0_for_90_epoch_epoch90,1,1109,NaN,bottle,knife,0,knife8-bottle3.png,
sup_RN50_gauss_0_for_90_epoch_epoch90,1,1110,NaN,knife,knife,0,knife8-car2.png,
sup_RN50_gauss_0_for_90_epoch_epoch90,1,1111,NaN,cat,knife,0,knife8-cat2.png,
sup_RN50_gauss_0_for_90_epoch_epoch90,1,1112,NaN,truck,knife,0,knife8-truck3.png,
sup_RN50_gauss_0_for_90_epoch_epoch90,1,1113,NaN,boat,knife,0,knife9-airplane2.png,
sup_RN50_gauss_0_for_90_epoch_epoch90,1,1114,NaN,cat,knife,0,knife9-bear3.png,
sup_RN50_gauss_0_for_90_epoch_epoch90,1,1115,NaN,bicycle,knife,0,knife9-bicycle1.png,
sup_RN50_gauss_0_for_90_epoch_epoch90,1,1116,NaN,bird,knife,0,knife9-bird1.png,
sup_RN50_gauss_0_for_90_epoch_epoch90,1,1117,NaN,airplane,knife,0,knife9-boat1.png,
sup_RN50_gauss_0_for_90_epoch_epoch90,1,1118,NaN,bottle,knife,0,knife9-bottle2.png,
sup_RN50_gauss_0_for_90_epoch_epoch90,1,1119,NaN,car,knife,0,knife9-chair1.png,
sup_RN50_gauss_0_for_90_epoch_epoch90,1,1120,NaN,elephant,knife,0,knife9-elephant2.png,
sup_RN50_gauss_0_for_90_epoch_epoch90,1,1121,NaN,oven,oven,0,oven1-bird3.png,
sup_RN50_gauss_0_for_90_epoch_epoch90,1,1122,NaN,truck,oven,0,oven1-boat3.png,
sup_RN50_gauss_0_for_90_epoch_epoch90,1,1123,NaN,cat,oven,0,oven1-cat1.png,
sup_RN50_gauss_0_for_90_epoch_epoch90,1,1124,NaN,clock,oven,0,oven1-clock3.png,
sup_RN50_gauss_0_for_90_epoch_epoch90,1,1125,NaN,oven,oven,0,oven1-dog3.png,
sup_RN50_gauss_0_for_90_epoch_epoch90,1,1126,NaN,car,oven,0,oven10-airplane2.png,
sup_RN50_gauss_0_for_90_epoch_epoch90,1,1127,NaN,cat,oven,0,oven10-bear1.png,
sup_RN50_gauss_0_for_90_epoch_epoch90,1,1128,NaN,oven,oven,0,oven10-bicycle1.png,
sup_RN50_gauss_0_for_90_epoch_epoch90,1,1129,NaN,boat,oven,0,oven10-boat2.png,
sup_RN50_gauss_0_for_90_epoch_epoch90,1,1130,NaN,cat,oven,0,oven10-cat2.png,
sup_RN50_gauss_0_for_90_epoch_epoch90,1,1131,NaN,oven,oven,0,oven10-oven3.png,
sup_RN50_gauss_0_for_90_epoch_epoch90,1,1132,NaN,truck,oven,0,oven10-truck2.png,
sup_RN50_gauss_0_for_90_epoch_epoch90,1,1133,NaN,bear,oven,0,oven2-bear3.png,
sup_RN50_gauss_0_for_90_epoch_epoch90,1,1134,NaN,truck,oven,0,oven2-bicycle1.png,
sup_RN50_gauss_0_for_90_epoch_epoch90,1,1135,NaN,oven,oven,0,oven2-bird2.png,
sup_RN50_gauss_0_for_90_epoch_epoch90,1,1136,NaN,truck,oven,0,oven2-boat3.png,
sup_RN50_gauss_0_for_90_epoch_epoch90,1,1137,NaN,bottle,oven,0,oven2-bottle1.png,
sup_RN50_gauss_0_for_90_epoch_epoch90,1,1138,NaN,car,oven,0,oven2-car1.png,
sup_RN50_gauss_0_for_90_epoch_epoch90,1,1139,NaN,car,oven,0,oven2-chair1.png,
sup_RN50_gauss_0_for_90_epoch_epoch90,1,1140,NaN,dog,oven,0,oven2-dog3.png,
sup_RN50_gauss_0_for_90_epoch_epoch90,1,1141,NaN,oven,oven,0,oven2-oven3.png,
sup_RN50_gauss_0_for_90_epoch_epoch90,1,1142,NaN,clock,oven,0,oven2-truck3.png,
sup_RN50_gauss_0_for_90_epoch_epoch90,1,1143,NaN,keyboard,oven,0,oven3-airplane1.png,
sup_RN50_gauss_0_for_90_epoch_epoch90,1,1144,NaN,elephant,oven,0,oven3-bear2.png,
sup_RN50_gauss_0_for_90_epoch_epoch90,1,1145,NaN,truck,oven,0,oven3-boat3.png,
sup_RN50_gauss_0_for_90_epoch_epoch90,1,1146,NaN,bottle,oven,0,oven3-bottle3.png,
sup_RN50_gauss_0_for_90_epoch_epoch90,1,1147,NaN,car,oven,0,oven3-car2.png,
sup_RN50_gauss_0_for_90_epoch_epoch90,1,1148,NaN,cat,oven,0,oven3-cat2.png,
sup_RN50_gauss_0_for_90_epoch_epoch90,1,1149,NaN,clock,oven,0,oven3-clock3.png,
sup_RN50_gauss_0_for_90_epoch_epoch90,1,1150,NaN,elephant,oven,0,oven3-elephant3.png,
sup_RN50_gauss_0_for_90_epoch_epoch90,1,1151,NaN,knife,oven,0,oven3-knife1.png,
sup_RN50_gauss_0_for_90_epoch_epoch90,1,1152,NaN,bottle,oven,0,oven3-truck1.png,
sup_RN50_gauss_0_for_90_epoch_epoch90,1,1153,NaN,bicycle,oven,0,oven4-bicycle2.png,
sup_RN50_gauss_0_for_90_epoch_epoch90,1,1154,NaN,bottle,oven,0,oven4-bottle2.png,
sup_RN50_gauss_0_for_90_epoch_epoch90,1,1155,NaN,car,oven,0,oven4-car1.png,
sup_RN50_gauss_0_for_90_epoch_epoch90,1,1156,NaN,car,oven,0,oven4-chair1.png,
sup_RN50_gauss_0_for_90_epoch_epoch90,1,1157,NaN,knife,oven,0,oven4-clock2.png,
sup_RN50_gauss_0_for_90_epoch_epoch90,1,1158,NaN,cat,oven,0,oven4-dog1.png,
sup_RN50_gauss_0_for_90_epoch_epoch90,1,1159,NaN,elephant,oven,0,oven4-elephant3.png,
sup_RN50_gauss_0_for_90_epoch_epoch90,1,1160,NaN,bottle,oven,0,oven4-keyboard3.png,
sup_RN50_gauss_0_for_90_epoch_epoch90,1,1161,NaN,knife,oven,0,oven4-knife2.png,
sup_RN50_gauss_0_for_90_epoch_epoch90,1,1162,NaN,bottle,oven,0,oven4-truck3.png,
sup_RN50_gauss_0_for_90_epoch_epoch90,1,1163,NaN,keyboard,oven,0,oven5-airplane1.png,
sup_RN50_gauss_0_for_90_epoch_epoch90,1,1164,NaN,bottle,oven,0,oven5-bicycle1.png,
sup_RN50_gauss_0_for_90_epoch_epoch90,1,1165,NaN,bottle,oven,0,oven5-bird1.png,
sup_RN50_gauss_0_for_90_epoch_epoch90,1,1166,NaN,bottle,oven,0,oven5-bottle3.png,
sup_RN50_gauss_0_for_90_epoch_epoch90,1,1167,NaN,dog,oven,0,oven5-dog3.png,
sup_RN50_gauss_0_for_90_epoch_epoch90,1,1168,NaN,elephant,oven,0,oven5-elephant1.png,
sup_RN50_gauss_0_for_90_epoch_epoch90,1,1169,NaN,bottle,oven,0,oven5-keyboard2.png,
sup_RN50_gauss_0_for_90_epoch_epoch90,1,1170,NaN,truck,oven,0,oven6-airplane3.png,
sup_RN50_gauss_0_for_90_epoch_epoch90,1,1171,NaN,elephant,oven,0,oven6-bear2.png,
sup_RN50_gauss_0_for_90_epoch_epoch90,1,1172,NaN,bicycle,oven,0,oven6-bicycle1.png,
sup_RN50_gauss_0_for_90_epoch_epoch90,1,1173,NaN,bottle,oven,0,oven6-bird1.png,
sup_RN50_gauss_0_for_90_epoch_epoch90,1,1174,NaN,chair,oven,0,oven6-chair3.png,
sup_RN50_gauss_0_for_90_epoch_epoch90,1,1175,NaN,elephant,oven,0,oven6-elephant2.png,
sup_RN50_gauss_0_for_90_epoch_epoch90,1,1176,NaN,knife,oven,0,oven6-knife3.png,
sup_RN50_gauss_0_for_90_epoch_epoch90,1,1177,NaN,oven,oven,0,oven6-oven3.png,
sup_RN50_gauss_0_for_90_epoch_epoch90,1,1178,NaN,car,oven,0,oven6-truck1.png,
sup_RN50_gauss_0_for_90_epoch_epoch90,1,1179,NaN,bottle,oven,0,oven7-bottle1.png,
sup_RN50_gauss_0_for_90_epoch_epoch90,1,1180,NaN,car,oven,0,oven7-car3.png,
sup_RN50_gauss_0_for_90_epoch_epoch90,1,1181,NaN,bottle,oven,0,oven7-cat1.png,
sup_RN50_gauss_0_for_90_epoch_epoch90,1,1182,NaN,car,oven,0,oven7-clock2.png,
sup_RN50_gauss_0_for_90_epoch_epoch90,1,1183,NaN,bottle,oven,0,oven7-dog2.png,
sup_RN50_gauss_0_for_90_epoch_epoch90,1,1184,NaN,elephant,oven,0,oven7-elephant1.png,
sup_RN50_gauss_0_for_90_epoch_epoch90,1,1185,NaN,keyboard,oven,0,oven7-keyboard1.png,
sup_RN50_gauss_0_for_90_epoch_epoch90,1,1186,NaN,oven,oven,0,oven7-oven1.png,
sup_RN50_gauss_0_for_90_epoch_epoch90,1,1187,NaN,bottle,oven,0,oven8-cat3.png,
sup_RN50_gauss_0_for_90_epoch_epoch90,1,1188,NaN,car,oven,0,oven8-chair1.png,
sup_RN50_gauss_0_for_90_epoch_epoch90,1,1189,NaN,bottle,oven,0,oven8-keyboard3.png,
sup_RN50_gauss_0_for_90_epoch_epoch90,1,1190,NaN,knife,oven,0,oven8-knife2.png,
sup_RN50_gauss_0_for_90_epoch_epoch90,1,1191,NaN,car,oven,0,oven9-airplane2.png,
sup_RN50_gauss_0_for_90_epoch_epoch90,1,1192,NaN,elephant,oven,0,oven9-bear2.png,
sup_RN50_gauss_0_for_90_epoch_epoch90,1,1193,NaN,oven,oven,0,oven9-bird3.png,
sup_RN50_gauss_0_for_90_epoch_epoch90,1,1194,NaN,boat,oven,0,oven9-boat2.png,
sup_RN50_gauss_0_for_90_epoch_epoch90,1,1195,NaN,boat,oven,0,oven9-car2.png,
sup_RN50_gauss_0_for_90_epoch_epoch90,1,1196,NaN,car,oven,0,oven9-chair1.png,
sup_RN50_gauss_0_for_90_epoch_epoch90,1,1197,NaN,car,oven,0,oven9-clock2.png,
sup_RN50_gauss_0_for_90_epoch_epoch90,1,1198,NaN,keyboard,oven,0,oven9-keyboard1.png,
sup_RN50_gauss_0_for_90_epoch_epoch90,1,1199,NaN,bottle,oven,0,oven9-knife3.png,
sup_RN50_gauss_0_for_90_epoch_epoch90,1,1200,NaN,oven,oven,0,oven9-oven1.png,
sup_RN50_gauss_0_for_90_epoch_epoch90,1,1201,NaN,bear,truck,0,truck1-bear1.png,
sup_RN50_gauss_0_for_90_epoch_epoch90,1,1202,NaN,truck,truck,0,truck1-bicycle3.png,
sup_RN50_gauss_0_for_90_epoch_epoch90,1,1203,NaN,bottle,truck,0,truck1-bird1.png,
sup_RN50_gauss_0_for_90_epoch_epoch90,1,1204,NaN,car,truck,0,truck1-car3.png,
sup_RN50_gauss_0_for_90_epoch_epoch90,1,1205,NaN,cat,truck,0,truck1-cat1.png,
sup_RN50_gauss_0_for_90_epoch_epoch90,1,1206,NaN,truck,truck,0,truck1-chair2.png,
sup_RN50_gauss_0_for_90_epoch_epoch90,1,1207,NaN,clock,truck,0,truck1-clock3.png,
sup_RN50_gauss_0_for_90_epoch_epoch90,1,1208,NaN,bear,truck,0,truck1-dog1.png,
sup_RN50_gauss_0_for_90_epoch_epoch90,1,1209,NaN,truck,truck,0,truck1-knife1.png,
sup_RN50_gauss_0_for_90_epoch_epoch90,1,1210,NaN,airplane,truck,0,truck10-airplane1.png,
sup_RN50_gauss_0_for_90_epoch_epoch90,1,1211,NaN,bicycle,truck,0,truck10-bicycle1.png,
sup_RN50_gauss_0_for_90_epoch_epoch90,1,1212,NaN,car,truck,0,truck10-car3.png,
sup_RN50_gauss_0_for_90_epoch_epoch90,1,1213,NaN,clock,truck,0,truck10-clock1.png,
sup_RN50_gauss_0_for_90_epoch_epoch90,1,1214,NaN,elephant,truck,0,truck10-elephant3.png,
sup_RN50_gauss_0_for_90_epoch_epoch90,1,1215,NaN,truck,truck,0,truck10-truck3.png,
sup_RN50_gauss_0_for_90_epoch_epoch90,1,1216,NaN,truck,truck,0,truck2-airplane3.png,
sup_RN50_gauss_0_for_90_epoch_epoch90,1,1217,NaN,bicycle,truck,0,truck2-bicycle2.png,
sup_RN50_gauss_0_for_90_epoch_epoch90,1,1218,NaN,truck,truck,0,truck2-bird2.png,
sup_RN50_gauss_0_for_90_epoch_epoch90,1,1219,NaN,truck,truck,0,truck2-boat3.png,
sup_RN50_gauss_0_for_90_epoch_epoch90,1,1220,NaN,bottle,truck,0,truck2-bottle3.png,
sup_RN50_gauss_0_for_90_epoch_epoch90,1,1221,NaN,car,truck,0,truck2-car3.png,
sup_RN50_gauss_0_for_90_epoch_epoch90,1,1222,NaN,car,truck,0,truck2-chair1.png,
sup_RN50_gauss_0_for_90_epoch_epoch90,1,1223,NaN,clock,truck,0,truck2-clock1.png,
