subj,session,trial,rt,object_response,category,condition,imagename,
sup_RN50_from_gauss_4_for_20_epoch_to_gauss_2_for_20_epoch_to_gauss_0_for_20_epoch30,1,1,NaN,bottle,airplane,0,airplane1-bicycle2.png,
sup_RN50_from_gauss_4_for_20_epoch_to_gauss_2_for_20_epoch_to_gauss_0_for_20_epoch30,1,2,NaN,clock,airplane,0,airplane1-chair2.png,
sup_RN50_from_gauss_4_for_20_epoch_to_gauss_2_for_20_epoch_to_gauss_0_for_20_epoch30,1,3,NaN,clock,airplane,0,airplane1-clock1.png,
sup_RN50_from_gauss_4_for_20_epoch_to_gauss_2_for_20_epoch_to_gauss_0_for_20_epoch30,1,4,NaN,bottle,airplane,0,airplane1-elephant1.png,
sup_RN50_from_gauss_4_for_20_epoch_to_gauss_2_for_20_epoch_to_gauss_0_for_20_epoch30,1,5,NaN,clock,airplane,0,airplane10-airplane1.png,
sup_RN50_from_gauss_4_for_20_epoch_to_gauss_2_for_20_epoch_to_gauss_0_for_20_epoch30,1,6,NaN,bottle,airplane,0,airplane10-bear3.png,
sup_RN50_from_gauss_4_for_20_epoch_to_gauss_2_for_20_epoch_to_gauss_0_for_20_epoch30,1,7,NaN,bottle,airplane,0,airplane10-boat3.png,
sup_RN50_from_gauss_4_for_20_epoch_to_gauss_2_for_20_epoch_to_gauss_0_for_20_epoch30,1,8,NaN,keyboard,airplane,0,airplane10-car3.png,
sup_RN50_from_gauss_4_for_20_epoch_to_gauss_2_for_20_epoch_to_gauss_0_for_20_epoch30,1,9,NaN,bottle,airplane,0,airplane10-cat2.png,
sup_RN50_from_gauss_4_for_20_epoch_to_gauss_2_for_20_epoch_to_gauss_0_for_20_epoch30,1,10,NaN,chair,airplane,0,airplane10-dog3.png,
sup_RN50_from_gauss_4_for_20_epoch_to_gauss_2_for_20_epoch_to_gauss_0_for_20_epoch30,1,11,NaN,chair,airplane,0,airplane10-elephant1.png,
sup_RN50_from_gauss_4_for_20_epoch_to_gauss_2_for_20_epoch_to_gauss_0_for_20_epoch30,1,12,NaN,chair,airplane,0,airplane10-knife3.png,
sup_RN50_from_gauss_4_for_20_epoch_to_gauss_2_for_20_epoch_to_gauss_0_for_20_epoch30,1,13,NaN,keyboard,airplane,0,airplane10-oven2.png,
sup_RN50_from_gauss_4_for_20_epoch_to_gauss_2_for_20_epoch_to_gauss_0_for_20_epoch30,1,14,NaN,clock,airplane,0,airplane10-truck1.png,
sup_RN50_from_gauss_4_for_20_epoch_to_gauss_2_for_20_epoch_to_gauss_0_for_20_epoch30,1,15,NaN,bottle,airplane,0,airplane2-bear1.png,
sup_RN50_from_gauss_4_for_20_epoch_to_gauss_2_for_20_epoch_to_gauss_0_for_20_epoch30,1,16,NaN,clock,airplane,0,airplane2-bicycle1.png,
sup_RN50_from_gauss_4_for_20_epoch_to_gauss_2_for_20_epoch_to_gauss_0_for_20_epoch30,1,17,NaN,clock,airplane,0,airplane2-bird3.png,
sup_RN50_from_gauss_4_for_20_epoch_to_gauss_2_for_20_epoch_to_gauss_0_for_20_epoch30,1,18,NaN,clock,airplane,0,airplane2-bottle1.png,
sup_RN50_from_gauss_4_for_20_epoch_to_gauss_2_for_20_epoch_to_gauss_0_for_20_epoch30,1,19,NaN,bottle,airplane,0,airplane2-cat1.png,
sup_RN50_from_gauss_4_for_20_epoch_to_gauss_2_for_20_epoch_to_gauss_0_for_20_epoch30,1,20,NaN,bottle,airplane,0,airplane2-dog1.png,
sup_RN50_from_gauss_4_for_20_epoch_to_gauss_2_for_20_epoch_to_gauss_0_for_20_epoch30,1,21,NaN,clock,airplane,0,airplane3-airplane2.png,
sup_RN50_from_gauss_4_for_20_epoch_to_gauss_2_for_20_epoch_to_gauss_0_for_20_epoch30,1,22,NaN,clock,airplane,0,airplane3-car1.png,
sup_RN50_from_gauss_4_for_20_epoch_to_gauss_2_for_20_epoch_to_gauss_0_for_20_epoch30,1,23,NaN,cat,airplane,0,airplane3-cat1.png,
sup_RN50_from_gauss_4_for_20_epoch_to_gauss_2_for_20_epoch_to_gauss_0_for_20_epoch30,1,24,NaN,clock,airplane,0,airplane3-chair3.png,
sup_RN50_from_gauss_4_for_20_epoch_to_gauss_2_for_20_epoch_to_gauss_0_for_20_epoch30,1,25,NaN,clock,airplane,0,airplane3-clock1.png,
sup_RN50_from_gauss_4_for_20_epoch_to_gauss_2_for_20_epoch_to_gauss_0_for_20_epoch30,1,26,NaN,bottle,airplane,0,airplane3-dog1.png,
sup_RN50_from_gauss_4_for_20_epoch_to_gauss_2_for_20_epoch_to_gauss_0_for_20_epoch30,1,27,NaN,bottle,airplane,0,airplane3-elephant1.png,
sup_RN50_from_gauss_4_for_20_epoch_to_gauss_2_for_20_epoch_to_gauss_0_for_20_epoch30,1,28,NaN,clock,airplane,0,airplane3-keyboard2.png,
sup_RN50_from_gauss_4_for_20_epoch_to_gauss_2_for_20_epoch_to_gauss_0_for_20_epoch30,1,29,NaN,clock,airplane,0,airplane3-oven1.png,
sup_RN50_from_gauss_4_for_20_epoch_to_gauss_2_for_20_epoch_to_gauss_0_for_20_epoch30,1,30,NaN,clock,airplane,0,airplane4-airplane1.png,
sup_RN50_from_gauss_4_for_20_epoch_to_gauss_2_for_20_epoch_to_gauss_0_for_20_epoch30,1,31,NaN,bottle,airplane,0,airplane4-bear3.png,
sup_RN50_from_gauss_4_for_20_epoch_to_gauss_2_for_20_epoch_to_gauss_0_for_20_epoch30,1,32,NaN,bottle,airplane,0,airplane4-bicycle2.png,
sup_RN50_from_gauss_4_for_20_epoch_to_gauss_2_for_20_epoch_to_gauss_0_for_20_epoch30,1,33,NaN,clock,airplane,0,airplane4-bird3.png,
sup_RN50_from_gauss_4_for_20_epoch_to_gauss_2_for_20_epoch_to_gauss_0_for_20_epoch30,1,34,NaN,bottle,airplane,0,airplane4-boat3.png,
sup_RN50_from_gauss_4_for_20_epoch_to_gauss_2_for_20_epoch_to_gauss_0_for_20_epoch30,1,35,NaN,clock,airplane,0,airplane4-bottle1.png,
sup_RN50_from_gauss_4_for_20_epoch_to_gauss_2_for_20_epoch_to_gauss_0_for_20_epoch30,1,36,NaN,clock,airplane,0,airplane4-car1.png,
sup_RN50_from_gauss_4_for_20_epoch_to_gauss_2_for_20_epoch_to_gauss_0_for_20_epoch30,1,37,NaN,bottle,airplane,0,airplane4-cat3.png,
sup_RN50_from_gauss_4_for_20_epoch_to_gauss_2_for_20_epoch_to_gauss_0_for_20_epoch30,1,38,NaN,elephant,airplane,0,airplane4-dog2.png,
sup_RN50_from_gauss_4_for_20_epoch_to_gauss_2_for_20_epoch_to_gauss_0_for_20_epoch30,1,39,NaN,bottle,airplane,0,airplane4-elephant1.png,
sup_RN50_from_gauss_4_for_20_epoch_to_gauss_2_for_20_epoch_to_gauss_0_for_20_epoch30,1,40,NaN,clock,airplane,0,airplane4-keyboard3.png,
sup_RN50_from_gauss_4_for_20_epoch_to_gauss_2_for_20_epoch_to_gauss_0_for_20_epoch30,1,41,NaN,chair,airplane,0,airplane4-knife1.png,
sup_RN50_from_gauss_4_for_20_epoch_to_gauss_2_for_20_epoch_to_gauss_0_for_20_epoch30,1,42,NaN,car,airplane,0,airplane4-truck2.png,
sup_RN50_from_gauss_4_for_20_epoch_to_gauss_2_for_20_epoch_to_gauss_0_for_20_epoch30,1,43,NaN,bottle,airplane,0,airplane5-bear2.png,
sup_RN50_from_gauss_4_for_20_epoch_to_gauss_2_for_20_epoch_to_gauss_0_for_20_epoch30,1,44,NaN,clock,airplane,0,airplane5-bicycle1.png,
sup_RN50_from_gauss_4_for_20_epoch_to_gauss_2_for_20_epoch_to_gauss_0_for_20_epoch30,1,45,NaN,bottle,airplane,0,airplane5-bird2.png,
sup_RN50_from_gauss_4_for_20_epoch_to_gauss_2_for_20_epoch_to_gauss_0_for_20_epoch30,1,46,NaN,bottle,airplane,0,airplane5-boat3.png,
sup_RN50_from_gauss_4_for_20_epoch_to_gauss_2_for_20_epoch_to_gauss_0_for_20_epoch30,1,47,NaN,clock,airplane,0,airplane5-bottle3.png,
sup_RN50_from_gauss_4_for_20_epoch_to_gauss_2_for_20_epoch_to_gauss_0_for_20_epoch30,1,48,NaN,clock,airplane,0,airplane5-chair3.png,
sup_RN50_from_gauss_4_for_20_epoch_to_gauss_2_for_20_epoch_to_gauss_0_for_20_epoch30,1,49,NaN,bottle,airplane,0,airplane5-dog3.png,
sup_RN50_from_gauss_4_for_20_epoch_to_gauss_2_for_20_epoch_to_gauss_0_for_20_epoch30,1,50,NaN,chair,airplane,0,airplane5-knife1.png,
sup_RN50_from_gauss_4_for_20_epoch_to_gauss_2_for_20_epoch_to_gauss_0_for_20_epoch30,1,51,NaN,clock,airplane,0,airplane5-oven3.png,
sup_RN50_from_gauss_4_for_20_epoch_to_gauss_2_for_20_epoch_to_gauss_0_for_20_epoch30,1,52,NaN,bottle,airplane,0,airplane6-bear3.png,
sup_RN50_from_gauss_4_for_20_epoch_to_gauss_2_for_20_epoch_to_gauss_0_for_20_epoch30,1,53,NaN,clock,airplane,0,airplane6-bottle2.png,
sup_RN50_from_gauss_4_for_20_epoch_to_gauss_2_for_20_epoch_to_gauss_0_for_20_epoch30,1,54,NaN,clock,airplane,0,airplane6-chair3.png,
sup_RN50_from_gauss_4_for_20_epoch_to_gauss_2_for_20_epoch_to_gauss_0_for_20_epoch30,1,55,NaN,clock,airplane,0,airplane6-keyboard3.png,
sup_RN50_from_gauss_4_for_20_epoch_to_gauss_2_for_20_epoch_to_gauss_0_for_20_epoch30,1,56,NaN,chair,airplane,0,airplane6-knife1.png,
sup_RN50_from_gauss_4_for_20_epoch_to_gauss_2_for_20_epoch_to_gauss_0_for_20_epoch30,1,57,NaN,clock,airplane,0,airplane7-airplane3.png,
sup_RN50_from_gauss_4_for_20_epoch_to_gauss_2_for_20_epoch_to_gauss_0_for_20_epoch30,1,58,NaN,clock,airplane,0,airplane7-bird3.png,
sup_RN50_from_gauss_4_for_20_epoch_to_gauss_2_for_20_epoch_to_gauss_0_for_20_epoch30,1,59,NaN,clock,airplane,0,airplane7-boat2.png,
sup_RN50_from_gauss_4_for_20_epoch_to_gauss_2_for_20_epoch_to_gauss_0_for_20_epoch30,1,60,NaN,clock,airplane,0,airplane7-bottle3.png,
sup_RN50_from_gauss_4_for_20_epoch_to_gauss_2_for_20_epoch_to_gauss_0_for_20_epoch30,1,61,NaN,clock,airplane,0,airplane7-car1.png,
sup_RN50_from_gauss_4_for_20_epoch_to_gauss_2_for_20_epoch_to_gauss_0_for_20_epoch30,1,62,NaN,cat,airplane,0,airplane7-cat3.png,
sup_RN50_from_gauss_4_for_20_epoch_to_gauss_2_for_20_epoch_to_gauss_0_for_20_epoch30,1,63,NaN,clock,airplane,0,airplane7-clock3.png,
sup_RN50_from_gauss_4_for_20_epoch_to_gauss_2_for_20_epoch_to_gauss_0_for_20_epoch30,1,64,NaN,keyboard,airplane,0,airplane7-keyboard1.png,
sup_RN50_from_gauss_4_for_20_epoch_to_gauss_2_for_20_epoch_to_gauss_0_for_20_epoch30,1,65,NaN,clock,airplane,0,airplane7-truck1.png,
sup_RN50_from_gauss_4_for_20_epoch_to_gauss_2_for_20_epoch_to_gauss_0_for_20_epoch30,1,66,NaN,bottle,airplane,0,airplane8-bicycle3.png,
sup_RN50_from_gauss_4_for_20_epoch_to_gauss_2_for_20_epoch_to_gauss_0_for_20_epoch30,1,67,NaN,keyboard,airplane,0,airplane8-bird1.png,
sup_RN50_from_gauss_4_for_20_epoch_to_gauss_2_for_20_epoch_to_gauss_0_for_20_epoch30,1,68,NaN,clock,airplane,0,airplane8-chair1.png,
sup_RN50_from_gauss_4_for_20_epoch_to_gauss_2_for_20_epoch_to_gauss_0_for_20_epoch30,1,69,NaN,clock,airplane,0,airplane8-clock2.png,
sup_RN50_from_gauss_4_for_20_epoch_to_gauss_2_for_20_epoch_to_gauss_0_for_20_epoch30,1,70,NaN,bottle,airplane,0,airplane8-elephant3.png,
sup_RN50_from_gauss_4_for_20_epoch_to_gauss_2_for_20_epoch_to_gauss_0_for_20_epoch30,1,71,NaN,keyboard,airplane,0,airplane8-oven2.png,
sup_RN50_from_gauss_4_for_20_epoch_to_gauss_2_for_20_epoch_to_gauss_0_for_20_epoch30,1,72,NaN,clock,airplane,0,airplane8-truck3.png,
sup_RN50_from_gauss_4_for_20_epoch_to_gauss_2_for_20_epoch_to_gauss_0_for_20_epoch30,1,73,NaN,clock,airplane,0,airplane9-airplane2.png,
sup_RN50_from_gauss_4_for_20_epoch_to_gauss_2_for_20_epoch_to_gauss_0_for_20_epoch30,1,74,NaN,clock,airplane,0,airplane9-boat1.png,
sup_RN50_from_gauss_4_for_20_epoch_to_gauss_2_for_20_epoch_to_gauss_0_for_20_epoch30,1,75,NaN,clock,airplane,0,airplane9-car2.png,
sup_RN50_from_gauss_4_for_20_epoch_to_gauss_2_for_20_epoch_to_gauss_0_for_20_epoch30,1,76,NaN,bottle,airplane,0,airplane9-clock1.png,
sup_RN50_from_gauss_4_for_20_epoch_to_gauss_2_for_20_epoch_to_gauss_0_for_20_epoch30,1,77,NaN,clock,airplane,0,airplane9-keyboard2.png,
sup_RN50_from_gauss_4_for_20_epoch_to_gauss_2_for_20_epoch_to_gauss_0_for_20_epoch30,1,78,NaN,clock,airplane,0,airplane9-knife3.png,
sup_RN50_from_gauss_4_for_20_epoch_to_gauss_2_for_20_epoch_to_gauss_0_for_20_epoch30,1,79,NaN,keyboard,airplane,0,airplane9-oven2.png,
sup_RN50_from_gauss_4_for_20_epoch_to_gauss_2_for_20_epoch_to_gauss_0_for_20_epoch30,1,80,NaN,clock,airplane,0,airplane9-truck1.png,
sup_RN50_from_gauss_4_for_20_epoch_to_gauss_2_for_20_epoch_to_gauss_0_for_20_epoch30,1,81,NaN,elephant,bear,0,bear1-airplane3.png,
sup_RN50_from_gauss_4_for_20_epoch_to_gauss_2_for_20_epoch_to_gauss_0_for_20_epoch30,1,82,NaN,bottle,bear,0,bear1-bear3.png,
sup_RN50_from_gauss_4_for_20_epoch_to_gauss_2_for_20_epoch_to_gauss_0_for_20_epoch30,1,83,NaN,bottle,bear,0,bear1-bicycle3.png,
sup_RN50_from_gauss_4_for_20_epoch_to_gauss_2_for_20_epoch_to_gauss_0_for_20_epoch30,1,84,NaN,bottle,bear,0,bear1-bird2.png,
sup_RN50_from_gauss_4_for_20_epoch_to_gauss_2_for_20_epoch_to_gauss_0_for_20_epoch30,1,85,NaN,clock,bear,0,bear1-chair2.png,
sup_RN50_from_gauss_4_for_20_epoch_to_gauss_2_for_20_epoch_to_gauss_0_for_20_epoch30,1,86,NaN,clock,bear,0,bear1-clock2.png,
sup_RN50_from_gauss_4_for_20_epoch_to_gauss_2_for_20_epoch_to_gauss_0_for_20_epoch30,1,87,NaN,chair,bear,0,bear1-elephant1.png,
sup_RN50_from_gauss_4_for_20_epoch_to_gauss_2_for_20_epoch_to_gauss_0_for_20_epoch30,1,88,NaN,elephant,bear,0,bear10-bear2.png,
sup_RN50_from_gauss_4_for_20_epoch_to_gauss_2_for_20_epoch_to_gauss_0_for_20_epoch30,1,89,NaN,clock,bear,0,bear10-bottle1.png,
sup_RN50_from_gauss_4_for_20_epoch_to_gauss_2_for_20_epoch_to_gauss_0_for_20_epoch30,1,90,NaN,clock,bear,0,bear10-car2.png,
sup_RN50_from_gauss_4_for_20_epoch_to_gauss_2_for_20_epoch_to_gauss_0_for_20_epoch30,1,91,NaN,bottle,bear,0,bear10-cat2.png,
sup_RN50_from_gauss_4_for_20_epoch_to_gauss_2_for_20_epoch_to_gauss_0_for_20_epoch30,1,92,NaN,clock,bear,0,bear10-chair2.png,
sup_RN50_from_gauss_4_for_20_epoch_to_gauss_2_for_20_epoch_to_gauss_0_for_20_epoch30,1,93,NaN,clock,bear,0,bear10-clock1.png,
sup_RN50_from_gauss_4_for_20_epoch_to_gauss_2_for_20_epoch_to_gauss_0_for_20_epoch30,1,94,NaN,bottle,bear,0,bear10-elephant1.png,
sup_RN50_from_gauss_4_for_20_epoch_to_gauss_2_for_20_epoch_to_gauss_0_for_20_epoch30,1,95,NaN,clock,bear,0,bear10-keyboard3.png,
sup_RN50_from_gauss_4_for_20_epoch_to_gauss_2_for_20_epoch_to_gauss_0_for_20_epoch30,1,96,NaN,clock,bear,0,bear10-knife2.png,
sup_RN50_from_gauss_4_for_20_epoch_to_gauss_2_for_20_epoch_to_gauss_0_for_20_epoch30,1,97,NaN,clock,bear,0,bear10-oven1.png,
sup_RN50_from_gauss_4_for_20_epoch_to_gauss_2_for_20_epoch_to_gauss_0_for_20_epoch30,1,98,NaN,clock,bear,0,bear10-truck1.png,
sup_RN50_from_gauss_4_for_20_epoch_to_gauss_2_for_20_epoch_to_gauss_0_for_20_epoch30,1,99,NaN,clock,bear,0,bear2-airplane1.png,
sup_RN50_from_gauss_4_for_20_epoch_to_gauss_2_for_20_epoch_to_gauss_0_for_20_epoch30,1,100,NaN,clock,bear,0,bear2-bird3.png,
sup_RN50_from_gauss_4_for_20_epoch_to_gauss_2_for_20_epoch_to_gauss_0_for_20_epoch30,1,101,NaN,bottle,bear,0,bear2-car2.png,
sup_RN50_from_gauss_4_for_20_epoch_to_gauss_2_for_20_epoch_to_gauss_0_for_20_epoch30,1,102,NaN,bottle,bear,0,bear2-cat2.png,
sup_RN50_from_gauss_4_for_20_epoch_to_gauss_2_for_20_epoch_to_gauss_0_for_20_epoch30,1,103,NaN,elephant,bear,0,bear2-dog1.png,
sup_RN50_from_gauss_4_for_20_epoch_to_gauss_2_for_20_epoch_to_gauss_0_for_20_epoch30,1,104,NaN,bottle,bear,0,bear2-elephant1.png,
sup_RN50_from_gauss_4_for_20_epoch_to_gauss_2_for_20_epoch_to_gauss_0_for_20_epoch30,1,105,NaN,clock,bear,0,bear2-keyboard2.png,
sup_RN50_from_gauss_4_for_20_epoch_to_gauss_2_for_20_epoch_to_gauss_0_for_20_epoch30,1,106,NaN,clock,bear,0,bear2-knife2.png,
sup_RN50_from_gauss_4_for_20_epoch_to_gauss_2_for_20_epoch_to_gauss_0_for_20_epoch30,1,107,NaN,clock,bear,0,bear2-oven1.png,
sup_RN50_from_gauss_4_for_20_epoch_to_gauss_2_for_20_epoch_to_gauss_0_for_20_epoch30,1,108,NaN,clock,bear,0,bear3-airplane1.png,
sup_RN50_from_gauss_4_for_20_epoch_to_gauss_2_for_20_epoch_to_gauss_0_for_20_epoch30,1,109,NaN,bottle,bear,0,bear3-bicycle2.png,
sup_RN50_from_gauss_4_for_20_epoch_to_gauss_2_for_20_epoch_to_gauss_0_for_20_epoch30,1,110,NaN,elephant,bear,0,bear3-bird3.png,
sup_RN50_from_gauss_4_for_20_epoch_to_gauss_2_for_20_epoch_to_gauss_0_for_20_epoch30,1,111,NaN,clock,bear,0,bear3-car2.png,
sup_RN50_from_gauss_4_for_20_epoch_to_gauss_2_for_20_epoch_to_gauss_0_for_20_epoch30,1,112,NaN,cat,bear,0,bear3-cat1.png,
sup_RN50_from_gauss_4_for_20_epoch_to_gauss_2_for_20_epoch_to_gauss_0_for_20_epoch30,1,113,NaN,clock,bear,0,bear3-chair2.png,
sup_RN50_from_gauss_4_for_20_epoch_to_gauss_2_for_20_epoch_to_gauss_0_for_20_epoch30,1,114,NaN,bottle,bear,0,bear3-dog3.png,
sup_RN50_from_gauss_4_for_20_epoch_to_gauss_2_for_20_epoch_to_gauss_0_for_20_epoch30,1,115,NaN,clock,bear,0,bear3-keyboard2.png,
sup_RN50_from_gauss_4_for_20_epoch_to_gauss_2_for_20_epoch_to_gauss_0_for_20_epoch30,1,116,NaN,clock,bear,0,bear3-truck3.png,
sup_RN50_from_gauss_4_for_20_epoch_to_gauss_2_for_20_epoch_to_gauss_0_for_20_epoch30,1,117,NaN,clock,bear,0,bear4-boat2.png,
sup_RN50_from_gauss_4_for_20_epoch_to_gauss_2_for_20_epoch_to_gauss_0_for_20_epoch30,1,118,NaN,keyboard,bear,0,bear4-car3.png,
sup_RN50_from_gauss_4_for_20_epoch_to_gauss_2_for_20_epoch_to_gauss_0_for_20_epoch30,1,119,NaN,bottle,bear,0,bear4-cat3.png,
sup_RN50_from_gauss_4_for_20_epoch_to_gauss_2_for_20_epoch_to_gauss_0_for_20_epoch30,1,120,NaN,clock,bear,0,bear4-clock3.png,
sup_RN50_from_gauss_4_for_20_epoch_to_gauss_2_for_20_epoch_to_gauss_0_for_20_epoch30,1,121,NaN,chair,bear,0,bear4-elephant2.png,
sup_RN50_from_gauss_4_for_20_epoch_to_gauss_2_for_20_epoch_to_gauss_0_for_20_epoch30,1,122,NaN,clock,bear,0,bear4-keyboard3.png,
sup_RN50_from_gauss_4_for_20_epoch_to_gauss_2_for_20_epoch_to_gauss_0_for_20_epoch30,1,123,NaN,chair,bear,0,bear4-knife1.png,
sup_RN50_from_gauss_4_for_20_epoch_to_gauss_2_for_20_epoch_to_gauss_0_for_20_epoch30,1,124,NaN,clock,bear,0,bear4-oven2.png,
sup_RN50_from_gauss_4_for_20_epoch_to_gauss_2_for_20_epoch_to_gauss_0_for_20_epoch30,1,125,NaN,clock,bear,0,bear4-truck3.png,
sup_RN50_from_gauss_4_for_20_epoch_to_gauss_2_for_20_epoch_to_gauss_0_for_20_epoch30,1,126,NaN,clock,bear,0,bear5-airplane3.png,
sup_RN50_from_gauss_4_for_20_epoch_to_gauss_2_for_20_epoch_to_gauss_0_for_20_epoch30,1,127,NaN,bottle,bear,0,bear5-bicycle3.png,
sup_RN50_from_gauss_4_for_20_epoch_to_gauss_2_for_20_epoch_to_gauss_0_for_20_epoch30,1,128,NaN,bottle,bear,0,bear5-bird1.png,
sup_RN50_from_gauss_4_for_20_epoch_to_gauss_2_for_20_epoch_to_gauss_0_for_20_epoch30,1,129,NaN,clock,bear,0,bear5-boat2.png,
sup_RN50_from_gauss_4_for_20_epoch_to_gauss_2_for_20_epoch_to_gauss_0_for_20_epoch30,1,130,NaN,clock,bear,0,bear5-bottle1.png,
sup_RN50_from_gauss_4_for_20_epoch_to_gauss_2_for_20_epoch_to_gauss_0_for_20_epoch30,1,131,NaN,clock,bear,0,bear5-chair1.png,
sup_RN50_from_gauss_4_for_20_epoch_to_gauss_2_for_20_epoch_to_gauss_0_for_20_epoch30,1,132,NaN,clock,bear,0,bear5-oven3.png,
sup_RN50_from_gauss_4_for_20_epoch_to_gauss_2_for_20_epoch_to_gauss_0_for_20_epoch30,1,133,NaN,bottle,bear,0,bear6-bear1.png,
sup_RN50_from_gauss_4_for_20_epoch_to_gauss_2_for_20_epoch_to_gauss_0_for_20_epoch30,1,134,NaN,bottle,bear,0,bear6-bird2.png,
sup_RN50_from_gauss_4_for_20_epoch_to_gauss_2_for_20_epoch_to_gauss_0_for_20_epoch30,1,135,NaN,bottle,bear,0,bear6-boat3.png,
sup_RN50_from_gauss_4_for_20_epoch_to_gauss_2_for_20_epoch_to_gauss_0_for_20_epoch30,1,136,NaN,clock,bear,0,bear6-bottle3.png,
sup_RN50_from_gauss_4_for_20_epoch_to_gauss_2_for_20_epoch_to_gauss_0_for_20_epoch30,1,137,NaN,bottle,bear,0,bear6-car2.png,
sup_RN50_from_gauss_4_for_20_epoch_to_gauss_2_for_20_epoch_to_gauss_0_for_20_epoch30,1,138,NaN,bottle,bear,0,bear6-cat3.png,
sup_RN50_from_gauss_4_for_20_epoch_to_gauss_2_for_20_epoch_to_gauss_0_for_20_epoch30,1,139,NaN,clock,bear,0,bear6-chair1.png,
sup_RN50_from_gauss_4_for_20_epoch_to_gauss_2_for_20_epoch_to_gauss_0_for_20_epoch30,1,140,NaN,bottle,bear,0,bear6-clock1.png,
sup_RN50_from_gauss_4_for_20_epoch_to_gauss_2_for_20_epoch_to_gauss_0_for_20_epoch30,1,141,NaN,elephant,bear,0,bear7-bear2.png,
sup_RN50_from_gauss_4_for_20_epoch_to_gauss_2_for_20_epoch_to_gauss_0_for_20_epoch30,1,142,NaN,bottle,bear,0,bear7-bicycle2.png,
sup_RN50_from_gauss_4_for_20_epoch_to_gauss_2_for_20_epoch_to_gauss_0_for_20_epoch30,1,143,NaN,bottle,bear,0,bear7-clock1.png,
sup_RN50_from_gauss_4_for_20_epoch_to_gauss_2_for_20_epoch_to_gauss_0_for_20_epoch30,1,144,NaN,elephant,bear,0,bear7-dog3.png,
sup_RN50_from_gauss_4_for_20_epoch_to_gauss_2_for_20_epoch_to_gauss_0_for_20_epoch30,1,145,NaN,chair,bear,0,bear7-oven3.png,
sup_RN50_from_gauss_4_for_20_epoch_to_gauss_2_for_20_epoch_to_gauss_0_for_20_epoch30,1,146,NaN,bottle,bear,0,bear7-truck1.png,
sup_RN50_from_gauss_4_for_20_epoch_to_gauss_2_for_20_epoch_to_gauss_0_for_20_epoch30,1,147,NaN,clock,bear,0,bear8-airplane1.png,
sup_RN50_from_gauss_4_for_20_epoch_to_gauss_2_for_20_epoch_to_gauss_0_for_20_epoch30,1,148,NaN,bottle,bear,0,bear8-bear1.png,
sup_RN50_from_gauss_4_for_20_epoch_to_gauss_2_for_20_epoch_to_gauss_0_for_20_epoch30,1,149,NaN,clock,bear,0,bear8-bicycle3.png,
sup_RN50_from_gauss_4_for_20_epoch_to_gauss_2_for_20_epoch_to_gauss_0_for_20_epoch30,1,150,NaN,clock,bear,0,bear8-boat2.png,
sup_RN50_from_gauss_4_for_20_epoch_to_gauss_2_for_20_epoch_to_gauss_0_for_20_epoch30,1,151,NaN,clock,bear,0,bear8-bottle1.png,
sup_RN50_from_gauss_4_for_20_epoch_to_gauss_2_for_20_epoch_to_gauss_0_for_20_epoch30,1,152,NaN,elephant,bear,0,bear8-dog1.png,
sup_RN50_from_gauss_4_for_20_epoch_to_gauss_2_for_20_epoch_to_gauss_0_for_20_epoch30,1,153,NaN,elephant,bear,0,bear8-elephant2.png,
sup_RN50_from_gauss_4_for_20_epoch_to_gauss_2_for_20_epoch_to_gauss_0_for_20_epoch30,1,154,NaN,clock,bear,0,bear8-knife3.png,
sup_RN50_from_gauss_4_for_20_epoch_to_gauss_2_for_20_epoch_to_gauss_0_for_20_epoch30,1,155,NaN,clock,bear,0,bear8-truck3.png,
sup_RN50_from_gauss_4_for_20_epoch_to_gauss_2_for_20_epoch_to_gauss_0_for_20_epoch30,1,156,NaN,clock,bear,0,bear9-boat2.png,
sup_RN50_from_gauss_4_for_20_epoch_to_gauss_2_for_20_epoch_to_gauss_0_for_20_epoch30,1,157,NaN,clock,bear,0,bear9-bottle2.png,
sup_RN50_from_gauss_4_for_20_epoch_to_gauss_2_for_20_epoch_to_gauss_0_for_20_epoch30,1,158,NaN,bottle,bear,0,bear9-dog1.png,
sup_RN50_from_gauss_4_for_20_epoch_to_gauss_2_for_20_epoch_to_gauss_0_for_20_epoch30,1,159,NaN,keyboard,bear,0,bear9-keyboard3.png,
sup_RN50_from_gauss_4_for_20_epoch_to_gauss_2_for_20_epoch_to_gauss_0_for_20_epoch30,1,160,NaN,bottle,bear,0,bear9-knife2.png,
sup_RN50_from_gauss_4_for_20_epoch_to_gauss_2_for_20_epoch_to_gauss_0_for_20_epoch30,1,161,NaN,clock,bicycle,0,bicycle1-airplane2.png,
sup_RN50_from_gauss_4_for_20_epoch_to_gauss_2_for_20_epoch_to_gauss_0_for_20_epoch30,1,162,NaN,bottle,bicycle,0,bicycle1-bear1.png,
sup_RN50_from_gauss_4_for_20_epoch_to_gauss_2_for_20_epoch_to_gauss_0_for_20_epoch30,1,163,NaN,bottle,bicycle,0,bicycle1-bicycle3.png,
sup_RN50_from_gauss_4_for_20_epoch_to_gauss_2_for_20_epoch_to_gauss_0_for_20_epoch30,1,164,NaN,clock,bicycle,0,bicycle1-bird1.png,
sup_RN50_from_gauss_4_for_20_epoch_to_gauss_2_for_20_epoch_to_gauss_0_for_20_epoch30,1,165,NaN,bottle,bicycle,0,bicycle1-boat3.png,
sup_RN50_from_gauss_4_for_20_epoch_to_gauss_2_for_20_epoch_to_gauss_0_for_20_epoch30,1,166,NaN,clock,bicycle,0,bicycle1-bottle3.png,
sup_RN50_from_gauss_4_for_20_epoch_to_gauss_2_for_20_epoch_to_gauss_0_for_20_epoch30,1,167,NaN,clock,bicycle,0,bicycle1-chair1.png,
sup_RN50_from_gauss_4_for_20_epoch_to_gauss_2_for_20_epoch_to_gauss_0_for_20_epoch30,1,168,NaN,clock,bicycle,0,bicycle1-clock3.png,
sup_RN50_from_gauss_4_for_20_epoch_to_gauss_2_for_20_epoch_to_gauss_0_for_20_epoch30,1,169,NaN,bottle,bicycle,0,bicycle1-dog3.png,
sup_RN50_from_gauss_4_for_20_epoch_to_gauss_2_for_20_epoch_to_gauss_0_for_20_epoch30,1,170,NaN,chair,bicycle,0,bicycle1-elephant2.png,
sup_RN50_from_gauss_4_for_20_epoch_to_gauss_2_for_20_epoch_to_gauss_0_for_20_epoch30,1,171,NaN,chair,bicycle,0,bicycle1-knife3.png,
sup_RN50_from_gauss_4_for_20_epoch_to_gauss_2_for_20_epoch_to_gauss_0_for_20_epoch30,1,172,NaN,clock,bicycle,0,bicycle1-oven1.png,
sup_RN50_from_gauss_4_for_20_epoch_to_gauss_2_for_20_epoch_to_gauss_0_for_20_epoch30,1,173,NaN,clock,bicycle,0,bicycle1-truck1.png,
sup_RN50_from_gauss_4_for_20_epoch_to_gauss_2_for_20_epoch_to_gauss_0_for_20_epoch30,1,174,NaN,clock,bicycle,0,bicycle10-airplane2.png,
sup_RN50_from_gauss_4_for_20_epoch_to_gauss_2_for_20_epoch_to_gauss_0_for_20_epoch30,1,175,NaN,clock,bicycle,0,bicycle10-boat3.png,
sup_RN50_from_gauss_4_for_20_epoch_to_gauss_2_for_20_epoch_to_gauss_0_for_20_epoch30,1,176,NaN,clock,bicycle,0,bicycle10-clock2.png,
sup_RN50_from_gauss_4_for_20_epoch_to_gauss_2_for_20_epoch_to_gauss_0_for_20_epoch30,1,177,NaN,bottle,bicycle,0,bicycle10-dog3.png,
sup_RN50_from_gauss_4_for_20_epoch_to_gauss_2_for_20_epoch_to_gauss_0_for_20_epoch30,1,178,NaN,chair,bicycle,0,bicycle10-elephant2.png,
sup_RN50_from_gauss_4_for_20_epoch_to_gauss_2_for_20_epoch_to_gauss_0_for_20_epoch30,1,179,NaN,clock,bicycle,0,bicycle2-bicycle1.png,
sup_RN50_from_gauss_4_for_20_epoch_to_gauss_2_for_20_epoch_to_gauss_0_for_20_epoch30,1,180,NaN,clock,bicycle,0,bicycle2-bird3.png,
sup_RN50_from_gauss_4_for_20_epoch_to_gauss_2_for_20_epoch_to_gauss_0_for_20_epoch30,1,181,NaN,clock,bicycle,0,bicycle2-bottle1.png,
sup_RN50_from_gauss_4_for_20_epoch_to_gauss_2_for_20_epoch_to_gauss_0_for_20_epoch30,1,182,NaN,clock,bicycle,0,bicycle2-car2.png,
sup_RN50_from_gauss_4_for_20_epoch_to_gauss_2_for_20_epoch_to_gauss_0_for_20_epoch30,1,183,NaN,bottle,bicycle,0,bicycle2-dog1.png,
sup_RN50_from_gauss_4_for_20_epoch_to_gauss_2_for_20_epoch_to_gauss_0_for_20_epoch30,1,184,NaN,clock,bicycle,0,bicycle2-keyboard2.png,
sup_RN50_from_gauss_4_for_20_epoch_to_gauss_2_for_20_epoch_to_gauss_0_for_20_epoch30,1,185,NaN,clock,bicycle,0,bicycle2-knife2.png,
sup_RN50_from_gauss_4_for_20_epoch_to_gauss_2_for_20_epoch_to_gauss_0_for_20_epoch30,1,186,NaN,keyboard,bicycle,0,bicycle3-bird1.png,
sup_RN50_from_gauss_4_for_20_epoch_to_gauss_2_for_20_epoch_to_gauss_0_for_20_epoch30,1,187,NaN,chair,bicycle,0,bicycle3-elephant2.png,
sup_RN50_from_gauss_4_for_20_epoch_to_gauss_2_for_20_epoch_to_gauss_0_for_20_epoch30,1,188,NaN,clock,bicycle,0,bicycle3-keyboard1.png,
sup_RN50_from_gauss_4_for_20_epoch_to_gauss_2_for_20_epoch_to_gauss_0_for_20_epoch30,1,189,NaN,clock,bicycle,0,bicycle3-oven3.png,
sup_RN50_from_gauss_4_for_20_epoch_to_gauss_2_for_20_epoch_to_gauss_0_for_20_epoch30,1,190,NaN,clock,bicycle,0,bicycle3-truck3.png,
sup_RN50_from_gauss_4_for_20_epoch_to_gauss_2_for_20_epoch_to_gauss_0_for_20_epoch30,1,191,NaN,clock,bicycle,0,bicycle4-airplane1.png,
sup_RN50_from_gauss_4_for_20_epoch_to_gauss_2_for_20_epoch_to_gauss_0_for_20_epoch30,1,192,NaN,bottle,bicycle,0,bicycle4-bicycle3.png,
sup_RN50_from_gauss_4_for_20_epoch_to_gauss_2_for_20_epoch_to_gauss_0_for_20_epoch30,1,193,NaN,clock,bicycle,0,bicycle4-boat1.png,
sup_RN50_from_gauss_4_for_20_epoch_to_gauss_2_for_20_epoch_to_gauss_0_for_20_epoch30,1,194,NaN,clock,bicycle,0,bicycle4-bottle1.png,
sup_RN50_from_gauss_4_for_20_epoch_to_gauss_2_for_20_epoch_to_gauss_0_for_20_epoch30,1,195,NaN,clock,bicycle,0,bicycle4-car2.png,
sup_RN50_from_gauss_4_for_20_epoch_to_gauss_2_for_20_epoch_to_gauss_0_for_20_epoch30,1,196,NaN,bottle,bicycle,0,bicycle4-cat1.png,
sup_RN50_from_gauss_4_for_20_epoch_to_gauss_2_for_20_epoch_to_gauss_0_for_20_epoch30,1,197,NaN,clock,bicycle,0,bicycle4-chair2.png,
sup_RN50_from_gauss_4_for_20_epoch_to_gauss_2_for_20_epoch_to_gauss_0_for_20_epoch30,1,198,NaN,clock,bicycle,0,bicycle4-clock3.png,
sup_RN50_from_gauss_4_for_20_epoch_to_gauss_2_for_20_epoch_to_gauss_0_for_20_epoch30,1,199,NaN,clock,bicycle,0,bicycle4-keyboard3.png,
sup_RN50_from_gauss_4_for_20_epoch_to_gauss_2_for_20_epoch_to_gauss_0_for_20_epoch30,1,200,NaN,clock,bicycle,0,bicycle4-knife3.png,
sup_RN50_from_gauss_4_for_20_epoch_to_gauss_2_for_20_epoch_to_gauss_0_for_20_epoch30,1,201,NaN,clock,bicycle,0,bicycle4-oven3.png,
sup_RN50_from_gauss_4_for_20_epoch_to_gauss_2_for_20_epoch_to_gauss_0_for_20_epoch30,1,202,NaN,clock,bicycle,0,bicycle4-truck3.png,
sup_RN50_from_gauss_4_for_20_epoch_to_gauss_2_for_20_epoch_to_gauss_0_for_20_epoch30,1,203,NaN,bottle,bicycle,0,bicycle5-bear1.png,
sup_RN50_from_gauss_4_for_20_epoch_to_gauss_2_for_20_epoch_to_gauss_0_for_20_epoch30,1,204,NaN,clock,bicycle,0,bicycle5-bottle3.png,
sup_RN50_from_gauss_4_for_20_epoch_to_gauss_2_for_20_epoch_to_gauss_0_for_20_epoch30,1,205,NaN,clock,bicycle,0,bicycle5-car3.png,
sup_RN50_from_gauss_4_for_20_epoch_to_gauss_2_for_20_epoch_to_gauss_0_for_20_epoch30,1,206,NaN,bottle,bicycle,0,bicycle5-cat1.png,
sup_RN50_from_gauss_4_for_20_epoch_to_gauss_2_for_20_epoch_to_gauss_0_for_20_epoch30,1,207,NaN,clock,bicycle,0,bicycle5-chair2.png,
sup_RN50_from_gauss_4_for_20_epoch_to_gauss_2_for_20_epoch_to_gauss_0_for_20_epoch30,1,208,NaN,chair,bicycle,0,bicycle5-dog2.png,
sup_RN50_from_gauss_4_for_20_epoch_to_gauss_2_for_20_epoch_to_gauss_0_for_20_epoch30,1,209,NaN,bottle,bicycle,0,bicycle5-elephant1.png,
sup_RN50_from_gauss_4_for_20_epoch_to_gauss_2_for_20_epoch_to_gauss_0_for_20_epoch30,1,210,NaN,clock,bicycle,0,bicycle5-keyboard3.png,
sup_RN50_from_gauss_4_for_20_epoch_to_gauss_2_for_20_epoch_to_gauss_0_for_20_epoch30,1,211,NaN,clock,bicycle,0,bicycle5-oven3.png,
sup_RN50_from_gauss_4_for_20_epoch_to_gauss_2_for_20_epoch_to_gauss_0_for_20_epoch30,1,212,NaN,clock,bicycle,0,bicycle6-airplane2.png,
sup_RN50_from_gauss_4_for_20_epoch_to_gauss_2_for_20_epoch_to_gauss_0_for_20_epoch30,1,213,NaN,bottle,bicycle,0,bicycle6-bicycle3.png,
sup_RN50_from_gauss_4_for_20_epoch_to_gauss_2_for_20_epoch_to_gauss_0_for_20_epoch30,1,214,NaN,clock,bicycle,0,bicycle6-boat2.png,
sup_RN50_from_gauss_4_for_20_epoch_to_gauss_2_for_20_epoch_to_gauss_0_for_20_epoch30,1,215,NaN,clock,bicycle,0,bicycle6-car2.png,
sup_RN50_from_gauss_4_for_20_epoch_to_gauss_2_for_20_epoch_to_gauss_0_for_20_epoch30,1,216,NaN,bottle,bicycle,0,bicycle6-cat1.png,
sup_RN50_from_gauss_4_for_20_epoch_to_gauss_2_for_20_epoch_to_gauss_0_for_20_epoch30,1,217,NaN,bicycle,bicycle,0,bicycle6-dog2.png,
sup_RN50_from_gauss_4_for_20_epoch_to_gauss_2_for_20_epoch_to_gauss_0_for_20_epoch30,1,218,NaN,bottle,bicycle,0,bicycle7-bear2.png,
sup_RN50_from_gauss_4_for_20_epoch_to_gauss_2_for_20_epoch_to_gauss_0_for_20_epoch30,1,219,NaN,clock,bicycle,0,bicycle7-bicycle2.png,
sup_RN50_from_gauss_4_for_20_epoch_to_gauss_2_for_20_epoch_to_gauss_0_for_20_epoch30,1,220,NaN,bottle,bicycle,0,bicycle7-cat1.png,
sup_RN50_from_gauss_4_for_20_epoch_to_gauss_2_for_20_epoch_to_gauss_0_for_20_epoch30,1,221,NaN,clock,bicycle,0,bicycle7-clock3.png,
sup_RN50_from_gauss_4_for_20_epoch_to_gauss_2_for_20_epoch_to_gauss_0_for_20_epoch30,1,222,NaN,elephant,bicycle,0,bicycle7-elephant2.png,
sup_RN50_from_gauss_4_for_20_epoch_to_gauss_2_for_20_epoch_to_gauss_0_for_20_epoch30,1,223,NaN,clock,bicycle,0,bicycle7-knife2.png,
sup_RN50_from_gauss_4_for_20_epoch_to_gauss_2_for_20_epoch_to_gauss_0_for_20_epoch30,1,224,NaN,clock,bicycle,0,bicycle7-oven1.png,
sup_RN50_from_gauss_4_for_20_epoch_to_gauss_2_for_20_epoch_to_gauss_0_for_20_epoch30,1,225,NaN,clock,bicycle,0,bicycle7-truck3.png,
sup_RN50_from_gauss_4_for_20_epoch_to_gauss_2_for_20_epoch_to_gauss_0_for_20_epoch30,1,226,NaN,bottle,bicycle,0,bicycle8-bear2.png,
sup_RN50_from_gauss_4_for_20_epoch_to_gauss_2_for_20_epoch_to_gauss_0_for_20_epoch30,1,227,NaN,clock,bicycle,0,bicycle8-bird2.png,
sup_RN50_from_gauss_4_for_20_epoch_to_gauss_2_for_20_epoch_to_gauss_0_for_20_epoch30,1,228,NaN,clock,bicycle,0,bicycle8-boat1.png,
sup_RN50_from_gauss_4_for_20_epoch_to_gauss_2_for_20_epoch_to_gauss_0_for_20_epoch30,1,229,NaN,clock,bicycle,0,bicycle8-chair2.png,
sup_RN50_from_gauss_4_for_20_epoch_to_gauss_2_for_20_epoch_to_gauss_0_for_20_epoch30,1,230,NaN,clock,bicycle,0,bicycle8-clock3.png,
sup_RN50_from_gauss_4_for_20_epoch_to_gauss_2_for_20_epoch_to_gauss_0_for_20_epoch30,1,231,NaN,clock,bicycle,0,bicycle8-truck1.png,
sup_RN50_from_gauss_4_for_20_epoch_to_gauss_2_for_20_epoch_to_gauss_0_for_20_epoch30,1,232,NaN,clock,bicycle,0,bicycle9-airplane2.png,
sup_RN50_from_gauss_4_for_20_epoch_to_gauss_2_for_20_epoch_to_gauss_0_for_20_epoch30,1,233,NaN,bottle,bicycle,0,bicycle9-bear1.png,
sup_RN50_from_gauss_4_for_20_epoch_to_gauss_2_for_20_epoch_to_gauss_0_for_20_epoch30,1,234,NaN,clock,bicycle,0,bicycle9-bird3.png,
sup_RN50_from_gauss_4_for_20_epoch_to_gauss_2_for_20_epoch_to_gauss_0_for_20_epoch30,1,235,NaN,clock,bicycle,0,bicycle9-bottle1.png,
sup_RN50_from_gauss_4_for_20_epoch_to_gauss_2_for_20_epoch_to_gauss_0_for_20_epoch30,1,236,NaN,clock,bicycle,0,bicycle9-car1.png,
sup_RN50_from_gauss_4_for_20_epoch_to_gauss_2_for_20_epoch_to_gauss_0_for_20_epoch30,1,237,NaN,bottle,bicycle,0,bicycle9-cat3.png,
sup_RN50_from_gauss_4_for_20_epoch_to_gauss_2_for_20_epoch_to_gauss_0_for_20_epoch30,1,238,NaN,clock,bicycle,0,bicycle9-chair1.png,
sup_RN50_from_gauss_4_for_20_epoch_to_gauss_2_for_20_epoch_to_gauss_0_for_20_epoch30,1,239,NaN,keyboard,bicycle,0,bicycle9-keyboard3.png,
sup_RN50_from_gauss_4_for_20_epoch_to_gauss_2_for_20_epoch_to_gauss_0_for_20_epoch30,1,240,NaN,clock,bicycle,0,bicycle9-knife3.png,
sup_RN50_from_gauss_4_for_20_epoch_to_gauss_2_for_20_epoch_to_gauss_0_for_20_epoch30,1,241,NaN,clock,bird,0,bird1-airplane2.png,
sup_RN50_from_gauss_4_for_20_epoch_to_gauss_2_for_20_epoch_to_gauss_0_for_20_epoch30,1,242,NaN,bottle,bird,0,bird1-bear1.png,
sup_RN50_from_gauss_4_for_20_epoch_to_gauss_2_for_20_epoch_to_gauss_0_for_20_epoch30,1,243,NaN,clock,bird,0,bird1-bicycle2.png,
sup_RN50_from_gauss_4_for_20_epoch_to_gauss_2_for_20_epoch_to_gauss_0_for_20_epoch30,1,244,NaN,clock,bird,0,bird1-boat1.png,
sup_RN50_from_gauss_4_for_20_epoch_to_gauss_2_for_20_epoch_to_gauss_0_for_20_epoch30,1,245,NaN,clock,bird,0,bird1-chair2.png,
sup_RN50_from_gauss_4_for_20_epoch_to_gauss_2_for_20_epoch_to_gauss_0_for_20_epoch30,1,246,NaN,clock,bird,0,bird1-clock3.png,
sup_RN50_from_gauss_4_for_20_epoch_to_gauss_2_for_20_epoch_to_gauss_0_for_20_epoch30,1,247,NaN,chair,bird,0,bird1-elephant2.png,
sup_RN50_from_gauss_4_for_20_epoch_to_gauss_2_for_20_epoch_to_gauss_0_for_20_epoch30,1,248,NaN,clock,bird,0,bird1-keyboard3.png,
sup_RN50_from_gauss_4_for_20_epoch_to_gauss_2_for_20_epoch_to_gauss_0_for_20_epoch30,1,249,NaN,clock,bird,0,bird1-knife3.png,
sup_RN50_from_gauss_4_for_20_epoch_to_gauss_2_for_20_epoch_to_gauss_0_for_20_epoch30,1,250,NaN,clock,bird,0,bird1-oven1.png,
sup_RN50_from_gauss_4_for_20_epoch_to_gauss_2_for_20_epoch_to_gauss_0_for_20_epoch30,1,251,NaN,bottle,bird,0,bird1-truck1.png,
sup_RN50_from_gauss_4_for_20_epoch_to_gauss_2_for_20_epoch_to_gauss_0_for_20_epoch30,1,252,NaN,bottle,bird,0,bird10-bear2.png,
sup_RN50_from_gauss_4_for_20_epoch_to_gauss_2_for_20_epoch_to_gauss_0_for_20_epoch30,1,253,NaN,clock,bird,0,bird10-bicycle1.png,
sup_RN50_from_gauss_4_for_20_epoch_to_gauss_2_for_20_epoch_to_gauss_0_for_20_epoch30,1,254,NaN,bottle,bird,0,bird10-bird2.png,
sup_RN50_from_gauss_4_for_20_epoch_to_gauss_2_for_20_epoch_to_gauss_0_for_20_epoch30,1,255,NaN,bottle,bird,0,bird10-cat1.png,
sup_RN50_from_gauss_4_for_20_epoch_to_gauss_2_for_20_epoch_to_gauss_0_for_20_epoch30,1,256,NaN,clock,bird,0,bird10-chair1.png,
sup_RN50_from_gauss_4_for_20_epoch_to_gauss_2_for_20_epoch_to_gauss_0_for_20_epoch30,1,257,NaN,clock,bird,0,bird10-clock1.png,
sup_RN50_from_gauss_4_for_20_epoch_to_gauss_2_for_20_epoch_to_gauss_0_for_20_epoch30,1,258,NaN,bottle,bird,0,bird10-elephant2.png,
sup_RN50_from_gauss_4_for_20_epoch_to_gauss_2_for_20_epoch_to_gauss_0_for_20_epoch30,1,259,NaN,clock,bird,0,bird2-airplane3.png,
sup_RN50_from_gauss_4_for_20_epoch_to_gauss_2_for_20_epoch_to_gauss_0_for_20_epoch30,1,260,NaN,bottle,bird,0,bird2-bird2.png,
sup_RN50_from_gauss_4_for_20_epoch_to_gauss_2_for_20_epoch_to_gauss_0_for_20_epoch30,1,261,NaN,bottle,bird,0,bird2-car3.png,
sup_RN50_from_gauss_4_for_20_epoch_to_gauss_2_for_20_epoch_to_gauss_0_for_20_epoch30,1,262,NaN,clock,bird,0,bird2-clock3.png,
sup_RN50_from_gauss_4_for_20_epoch_to_gauss_2_for_20_epoch_to_gauss_0_for_20_epoch30,1,263,NaN,elephant,bird,0,bird2-dog2.png,
sup_RN50_from_gauss_4_for_20_epoch_to_gauss_2_for_20_epoch_to_gauss_0_for_20_epoch30,1,264,NaN,bottle,bird,0,bird2-knife1.png,
sup_RN50_from_gauss_4_for_20_epoch_to_gauss_2_for_20_epoch_to_gauss_0_for_20_epoch30,1,265,NaN,bottle,bird,0,bird3-bear3.png,
sup_RN50_from_gauss_4_for_20_epoch_to_gauss_2_for_20_epoch_to_gauss_0_for_20_epoch30,1,266,NaN,bottle,bird,0,bird3-bird2.png,
sup_RN50_from_gauss_4_for_20_epoch_to_gauss_2_for_20_epoch_to_gauss_0_for_20_epoch30,1,267,NaN,bottle,bird,0,bird3-boat3.png,
sup_RN50_from_gauss_4_for_20_epoch_to_gauss_2_for_20_epoch_to_gauss_0_for_20_epoch30,1,268,NaN,clock,bird,0,bird3-bottle2.png,
sup_RN50_from_gauss_4_for_20_epoch_to_gauss_2_for_20_epoch_to_gauss_0_for_20_epoch30,1,269,NaN,bottle,bird,0,bird3-cat1.png,
sup_RN50_from_gauss_4_for_20_epoch_to_gauss_2_for_20_epoch_to_gauss_0_for_20_epoch30,1,270,NaN,bottle,bird,0,bird3-dog1.png,
sup_RN50_from_gauss_4_for_20_epoch_to_gauss_2_for_20_epoch_to_gauss_0_for_20_epoch30,1,271,NaN,clock,bird,0,bird3-knife3.png,
sup_RN50_from_gauss_4_for_20_epoch_to_gauss_2_for_20_epoch_to_gauss_0_for_20_epoch30,1,272,NaN,clock,bird,0,bird3-oven1.png,
sup_RN50_from_gauss_4_for_20_epoch_to_gauss_2_for_20_epoch_to_gauss_0_for_20_epoch30,1,273,NaN,clock,bird,0,bird3-truck3.png,
sup_RN50_from_gauss_4_for_20_epoch_to_gauss_2_for_20_epoch_to_gauss_0_for_20_epoch30,1,274,NaN,clock,bird,0,bird4-airplane1.png,
sup_RN50_from_gauss_4_for_20_epoch_to_gauss_2_for_20_epoch_to_gauss_0_for_20_epoch30,1,275,NaN,bottle,bird,0,bird4-bicycle2.png,
sup_RN50_from_gauss_4_for_20_epoch_to_gauss_2_for_20_epoch_to_gauss_0_for_20_epoch30,1,276,NaN,cat,bird,0,bird4-cat3.png,
sup_RN50_from_gauss_4_for_20_epoch_to_gauss_2_for_20_epoch_to_gauss_0_for_20_epoch30,1,277,NaN,clock,bird,0,bird4-clock1.png,
sup_RN50_from_gauss_4_for_20_epoch_to_gauss_2_for_20_epoch_to_gauss_0_for_20_epoch30,1,278,NaN,chair,bird,0,bird4-dog3.png,
sup_RN50_from_gauss_4_for_20_epoch_to_gauss_2_for_20_epoch_to_gauss_0_for_20_epoch30,1,279,NaN,clock,bird,0,bird5-airplane3.png,
sup_RN50_from_gauss_4_for_20_epoch_to_gauss_2_for_20_epoch_to_gauss_0_for_20_epoch30,1,280,NaN,bottle,bird,0,bird5-bear3.png,
sup_RN50_from_gauss_4_for_20_epoch_to_gauss_2_for_20_epoch_to_gauss_0_for_20_epoch30,1,281,NaN,clock,bird,0,bird5-bicycle1.png,
sup_RN50_from_gauss_4_for_20_epoch_to_gauss_2_for_20_epoch_to_gauss_0_for_20_epoch30,1,282,NaN,keyboard,bird,0,bird5-bird1.png,
sup_RN50_from_gauss_4_for_20_epoch_to_gauss_2_for_20_epoch_to_gauss_0_for_20_epoch30,1,283,NaN,clock,bird,0,bird5-car2.png,
sup_RN50_from_gauss_4_for_20_epoch_to_gauss_2_for_20_epoch_to_gauss_0_for_20_epoch30,1,284,NaN,bottle,bird,0,bird5-cat2.png,
sup_RN50_from_gauss_4_for_20_epoch_to_gauss_2_for_20_epoch_to_gauss_0_for_20_epoch30,1,285,NaN,clock,bird,0,bird5-chair1.png,
sup_RN50_from_gauss_4_for_20_epoch_to_gauss_2_for_20_epoch_to_gauss_0_for_20_epoch30,1,286,NaN,elephant,bird,0,bird5-dog2.png,
sup_RN50_from_gauss_4_for_20_epoch_to_gauss_2_for_20_epoch_to_gauss_0_for_20_epoch30,1,287,NaN,clock,bird,0,bird5-keyboard2.png,
sup_RN50_from_gauss_4_for_20_epoch_to_gauss_2_for_20_epoch_to_gauss_0_for_20_epoch30,1,288,NaN,clock,bird,0,bird5-oven3.png,
sup_RN50_from_gauss_4_for_20_epoch_to_gauss_2_for_20_epoch_to_gauss_0_for_20_epoch30,1,289,NaN,chair,bird,0,bird5-truck2.png,
sup_RN50_from_gauss_4_for_20_epoch_to_gauss_2_for_20_epoch_to_gauss_0_for_20_epoch30,1,290,NaN,clock,bird,0,bird6-airplane2.png,
sup_RN50_from_gauss_4_for_20_epoch_to_gauss_2_for_20_epoch_to_gauss_0_for_20_epoch30,1,291,NaN,clock,bird,0,bird6-boat2.png,
sup_RN50_from_gauss_4_for_20_epoch_to_gauss_2_for_20_epoch_to_gauss_0_for_20_epoch30,1,292,NaN,clock,bird,0,bird6-bottle3.png,
sup_RN50_from_gauss_4_for_20_epoch_to_gauss_2_for_20_epoch_to_gauss_0_for_20_epoch30,1,293,NaN,clock,bird,0,bird6-car3.png,
sup_RN50_from_gauss_4_for_20_epoch_to_gauss_2_for_20_epoch_to_gauss_0_for_20_epoch30,1,294,NaN,chair,bird,0,bird6-elephant2.png,
sup_RN50_from_gauss_4_for_20_epoch_to_gauss_2_for_20_epoch_to_gauss_0_for_20_epoch30,1,295,NaN,clock,bird,0,bird6-oven1.png,
sup_RN50_from_gauss_4_for_20_epoch_to_gauss_2_for_20_epoch_to_gauss_0_for_20_epoch30,1,296,NaN,clock,bird,0,bird6-truck2.png,
sup_RN50_from_gauss_4_for_20_epoch_to_gauss_2_for_20_epoch_to_gauss_0_for_20_epoch30,1,297,NaN,bottle,bird,0,bird7-bird2.png,
sup_RN50_from_gauss_4_for_20_epoch_to_gauss_2_for_20_epoch_to_gauss_0_for_20_epoch30,1,298,NaN,clock,bird,0,bird7-boat1.png,
sup_RN50_from_gauss_4_for_20_epoch_to_gauss_2_for_20_epoch_to_gauss_0_for_20_epoch30,1,299,NaN,clock,bird,0,bird7-bottle1.png,
sup_RN50_from_gauss_4_for_20_epoch_to_gauss_2_for_20_epoch_to_gauss_0_for_20_epoch30,1,300,NaN,bottle,bird,0,bird7-car2.png,
sup_RN50_from_gauss_4_for_20_epoch_to_gauss_2_for_20_epoch_to_gauss_0_for_20_epoch30,1,301,NaN,clock,bird,0,bird7-cat3.png,
sup_RN50_from_gauss_4_for_20_epoch_to_gauss_2_for_20_epoch_to_gauss_0_for_20_epoch30,1,302,NaN,clock,bird,0,bird7-keyboard3.png,
sup_RN50_from_gauss_4_for_20_epoch_to_gauss_2_for_20_epoch_to_gauss_0_for_20_epoch30,1,303,NaN,keyboard,bird,0,bird7-knife2.png,
sup_RN50_from_gauss_4_for_20_epoch_to_gauss_2_for_20_epoch_to_gauss_0_for_20_epoch30,1,304,NaN,clock,bird,0,bird7-oven3.png,
sup_RN50_from_gauss_4_for_20_epoch_to_gauss_2_for_20_epoch_to_gauss_0_for_20_epoch30,1,305,NaN,clock,bird,0,bird7-truck2.png,
sup_RN50_from_gauss_4_for_20_epoch_to_gauss_2_for_20_epoch_to_gauss_0_for_20_epoch30,1,306,NaN,bottle,bird,0,bird8-boat3.png,
sup_RN50_from_gauss_4_for_20_epoch_to_gauss_2_for_20_epoch_to_gauss_0_for_20_epoch30,1,307,NaN,clock,bird,0,bird8-bottle1.png,
sup_RN50_from_gauss_4_for_20_epoch_to_gauss_2_for_20_epoch_to_gauss_0_for_20_epoch30,1,308,NaN,clock,bird,0,bird8-car2.png,
sup_RN50_from_gauss_4_for_20_epoch_to_gauss_2_for_20_epoch_to_gauss_0_for_20_epoch30,1,309,NaN,clock,bird,0,bird8-chair1.png,
sup_RN50_from_gauss_4_for_20_epoch_to_gauss_2_for_20_epoch_to_gauss_0_for_20_epoch30,1,310,NaN,bottle,bird,0,bird8-clock1.png,
sup_RN50_from_gauss_4_for_20_epoch_to_gauss_2_for_20_epoch_to_gauss_0_for_20_epoch30,1,311,NaN,bottle,bird,0,bird8-elephant1.png,
sup_RN50_from_gauss_4_for_20_epoch_to_gauss_2_for_20_epoch_to_gauss_0_for_20_epoch30,1,312,NaN,clock,bird,0,bird8-keyboard2.png,
sup_RN50_from_gauss_4_for_20_epoch_to_gauss_2_for_20_epoch_to_gauss_0_for_20_epoch30,1,313,NaN,clock,bird,0,bird8-knife2.png,
sup_RN50_from_gauss_4_for_20_epoch_to_gauss_2_for_20_epoch_to_gauss_0_for_20_epoch30,1,314,NaN,bottle,bird,0,bird9-bear3.png,
sup_RN50_from_gauss_4_for_20_epoch_to_gauss_2_for_20_epoch_to_gauss_0_for_20_epoch30,1,315,NaN,bottle,bird,0,bird9-bicycle3.png,
sup_RN50_from_gauss_4_for_20_epoch_to_gauss_2_for_20_epoch_to_gauss_0_for_20_epoch30,1,316,NaN,clock,bird,0,bird9-bottle3.png,
sup_RN50_from_gauss_4_for_20_epoch_to_gauss_2_for_20_epoch_to_gauss_0_for_20_epoch30,1,317,NaN,clock,bird,0,bird9-chair1.png,
sup_RN50_from_gauss_4_for_20_epoch_to_gauss_2_for_20_epoch_to_gauss_0_for_20_epoch30,1,318,NaN,elephant,bird,0,bird9-dog2.png,
sup_RN50_from_gauss_4_for_20_epoch_to_gauss_2_for_20_epoch_to_gauss_0_for_20_epoch30,1,319,NaN,elephant,bird,0,bird9-elephant2.png,
sup_RN50_from_gauss_4_for_20_epoch_to_gauss_2_for_20_epoch_to_gauss_0_for_20_epoch30,1,320,NaN,keyboard,bird,0,bird9-keyboard1.png,
sup_RN50_from_gauss_4_for_20_epoch_to_gauss_2_for_20_epoch_to_gauss_0_for_20_epoch30,1,321,NaN,bottle,boat,0,boat1-bear1.png,
sup_RN50_from_gauss_4_for_20_epoch_to_gauss_2_for_20_epoch_to_gauss_0_for_20_epoch30,1,322,NaN,keyboard,boat,0,boat1-bicycle2.png,
sup_RN50_from_gauss_4_for_20_epoch_to_gauss_2_for_20_epoch_to_gauss_0_for_20_epoch30,1,323,NaN,clock,boat,0,boat1-bird3.png,
sup_RN50_from_gauss_4_for_20_epoch_to_gauss_2_for_20_epoch_to_gauss_0_for_20_epoch30,1,324,NaN,clock,boat,0,boat1-car2.png,
sup_RN50_from_gauss_4_for_20_epoch_to_gauss_2_for_20_epoch_to_gauss_0_for_20_epoch30,1,325,NaN,clock,boat,0,boat1-chair3.png,
sup_RN50_from_gauss_4_for_20_epoch_to_gauss_2_for_20_epoch_to_gauss_0_for_20_epoch30,1,326,NaN,bottle,boat,0,boat1-elephant3.png,
sup_RN50_from_gauss_4_for_20_epoch_to_gauss_2_for_20_epoch_to_gauss_0_for_20_epoch30,1,327,NaN,keyboard,boat,0,boat1-keyboard3.png,
sup_RN50_from_gauss_4_for_20_epoch_to_gauss_2_for_20_epoch_to_gauss_0_for_20_epoch30,1,328,NaN,clock,boat,0,boat1-oven1.png,
sup_RN50_from_gauss_4_for_20_epoch_to_gauss_2_for_20_epoch_to_gauss_0_for_20_epoch30,1,329,NaN,clock,boat,0,boat1-truck3.png,
sup_RN50_from_gauss_4_for_20_epoch_to_gauss_2_for_20_epoch_to_gauss_0_for_20_epoch30,1,330,NaN,bottle,boat,0,boat10-bear3.png,
sup_RN50_from_gauss_4_for_20_epoch_to_gauss_2_for_20_epoch_to_gauss_0_for_20_epoch30,1,331,NaN,bottle,boat,0,boat10-boat3.png,
sup_RN50_from_gauss_4_for_20_epoch_to_gauss_2_for_20_epoch_to_gauss_0_for_20_epoch30,1,332,NaN,bottle,boat,0,boat10-cat1.png,
sup_RN50_from_gauss_4_for_20_epoch_to_gauss_2_for_20_epoch_to_gauss_0_for_20_epoch30,1,333,NaN,clock,boat,0,boat10-oven1.png,
sup_RN50_from_gauss_4_for_20_epoch_to_gauss_2_for_20_epoch_to_gauss_0_for_20_epoch30,1,334,NaN,clock,boat,0,boat10-truck1.png,
sup_RN50_from_gauss_4_for_20_epoch_to_gauss_2_for_20_epoch_to_gauss_0_for_20_epoch30,1,335,NaN,clock,boat,0,boat2-airplane1.png,
sup_RN50_from_gauss_4_for_20_epoch_to_gauss_2_for_20_epoch_to_gauss_0_for_20_epoch30,1,336,NaN,bottle,boat,0,boat2-bear3.png,
sup_RN50_from_gauss_4_for_20_epoch_to_gauss_2_for_20_epoch_to_gauss_0_for_20_epoch30,1,337,NaN,clock,boat,0,boat2-bird1.png,
sup_RN50_from_gauss_4_for_20_epoch_to_gauss_2_for_20_epoch_to_gauss_0_for_20_epoch30,1,338,NaN,clock,boat,0,boat2-bottle2.png,
sup_RN50_from_gauss_4_for_20_epoch_to_gauss_2_for_20_epoch_to_gauss_0_for_20_epoch30,1,339,NaN,keyboard,boat,0,boat2-keyboard1.png,
sup_RN50_from_gauss_4_for_20_epoch_to_gauss_2_for_20_epoch_to_gauss_0_for_20_epoch30,1,340,NaN,chair,boat,0,boat2-oven3.png,
sup_RN50_from_gauss_4_for_20_epoch_to_gauss_2_for_20_epoch_to_gauss_0_for_20_epoch30,1,341,NaN,clock,boat,0,boat3-airplane2.png,
sup_RN50_from_gauss_4_for_20_epoch_to_gauss_2_for_20_epoch_to_gauss_0_for_20_epoch30,1,342,NaN,bottle,boat,0,boat3-bicycle2.png,
sup_RN50_from_gauss_4_for_20_epoch_to_gauss_2_for_20_epoch_to_gauss_0_for_20_epoch30,1,343,NaN,clock,boat,0,boat3-car3.png,
sup_RN50_from_gauss_4_for_20_epoch_to_gauss_2_for_20_epoch_to_gauss_0_for_20_epoch30,1,344,NaN,bottle,boat,0,boat3-cat3.png,
sup_RN50_from_gauss_4_for_20_epoch_to_gauss_2_for_20_epoch_to_gauss_0_for_20_epoch30,1,345,NaN,clock,boat,0,boat3-chair3.png,
sup_RN50_from_gauss_4_for_20_epoch_to_gauss_2_for_20_epoch_to_gauss_0_for_20_epoch30,1,346,NaN,clock,boat,0,boat3-clock3.png,
sup_RN50_from_gauss_4_for_20_epoch_to_gauss_2_for_20_epoch_to_gauss_0_for_20_epoch30,1,347,NaN,bottle,boat,0,boat3-dog3.png,
sup_RN50_from_gauss_4_for_20_epoch_to_gauss_2_for_20_epoch_to_gauss_0_for_20_epoch30,1,348,NaN,keyboard,boat,0,boat3-keyboard2.png,
sup_RN50_from_gauss_4_for_20_epoch_to_gauss_2_for_20_epoch_to_gauss_0_for_20_epoch30,1,349,NaN,bottle,boat,0,boat4-bicycle3.png,
sup_RN50_from_gauss_4_for_20_epoch_to_gauss_2_for_20_epoch_to_gauss_0_for_20_epoch30,1,350,NaN,keyboard,boat,0,boat4-bird1.png,
sup_RN50_from_gauss_4_for_20_epoch_to_gauss_2_for_20_epoch_to_gauss_0_for_20_epoch30,1,351,NaN,bottle,boat,0,boat4-boat3.png,
sup_RN50_from_gauss_4_for_20_epoch_to_gauss_2_for_20_epoch_to_gauss_0_for_20_epoch30,1,352,NaN,clock,boat,0,boat4-bottle2.png,
sup_RN50_from_gauss_4_for_20_epoch_to_gauss_2_for_20_epoch_to_gauss_0_for_20_epoch30,1,353,NaN,clock,boat,0,boat4-car3.png,
sup_RN50_from_gauss_4_for_20_epoch_to_gauss_2_for_20_epoch_to_gauss_0_for_20_epoch30,1,354,NaN,keyboard,boat,0,boat4-chair2.png,
sup_RN50_from_gauss_4_for_20_epoch_to_gauss_2_for_20_epoch_to_gauss_0_for_20_epoch30,1,355,NaN,elephant,boat,0,boat4-dog2.png,
sup_RN50_from_gauss_4_for_20_epoch_to_gauss_2_for_20_epoch_to_gauss_0_for_20_epoch30,1,356,NaN,elephant,boat,0,boat4-elephant2.png,
sup_RN50_from_gauss_4_for_20_epoch_to_gauss_2_for_20_epoch_to_gauss_0_for_20_epoch30,1,357,NaN,keyboard,boat,0,boat4-knife2.png,
sup_RN50_from_gauss_4_for_20_epoch_to_gauss_2_for_20_epoch_to_gauss_0_for_20_epoch30,1,358,NaN,clock,boat,0,boat5-airplane1.png,
sup_RN50_from_gauss_4_for_20_epoch_to_gauss_2_for_20_epoch_to_gauss_0_for_20_epoch30,1,359,NaN,bottle,boat,0,boat5-bicycle3.png,
sup_RN50_from_gauss_4_for_20_epoch_to_gauss_2_for_20_epoch_to_gauss_0_for_20_epoch30,1,360,NaN,bottle,boat,0,boat5-boat3.png,
sup_RN50_from_gauss_4_for_20_epoch_to_gauss_2_for_20_epoch_to_gauss_0_for_20_epoch30,1,361,NaN,clock,boat,0,boat5-car3.png,
sup_RN50_from_gauss_4_for_20_epoch_to_gauss_2_for_20_epoch_to_gauss_0_for_20_epoch30,1,362,NaN,clock,boat,0,boat5-clock3.png,
sup_RN50_from_gauss_4_for_20_epoch_to_gauss_2_for_20_epoch_to_gauss_0_for_20_epoch30,1,363,NaN,bottle,boat,0,boat5-knife2.png,
sup_RN50_from_gauss_4_for_20_epoch_to_gauss_2_for_20_epoch_to_gauss_0_for_20_epoch30,1,364,NaN,clock,boat,0,boat6-airplane2.png,
sup_RN50_from_gauss_4_for_20_epoch_to_gauss_2_for_20_epoch_to_gauss_0_for_20_epoch30,1,365,NaN,bottle,boat,0,boat6-bear1.png,
sup_RN50_from_gauss_4_for_20_epoch_to_gauss_2_for_20_epoch_to_gauss_0_for_20_epoch30,1,366,NaN,bottle,boat,0,boat6-bicycle2.png,
sup_RN50_from_gauss_4_for_20_epoch_to_gauss_2_for_20_epoch_to_gauss_0_for_20_epoch30,1,367,NaN,clock,boat,0,boat6-bottle2.png,
sup_RN50_from_gauss_4_for_20_epoch_to_gauss_2_for_20_epoch_to_gauss_0_for_20_epoch30,1,368,NaN,clock,boat,0,boat6-car1.png,
sup_RN50_from_gauss_4_for_20_epoch_to_gauss_2_for_20_epoch_to_gauss_0_for_20_epoch30,1,369,NaN,cat,boat,0,boat6-cat1.png,
sup_RN50_from_gauss_4_for_20_epoch_to_gauss_2_for_20_epoch_to_gauss_0_for_20_epoch30,1,370,NaN,clock,boat,0,boat6-clock2.png,
sup_RN50_from_gauss_4_for_20_epoch_to_gauss_2_for_20_epoch_to_gauss_0_for_20_epoch30,1,371,NaN,bottle,boat,0,boat6-dog1.png,
sup_RN50_from_gauss_4_for_20_epoch_to_gauss_2_for_20_epoch_to_gauss_0_for_20_epoch30,1,372,NaN,chair,boat,0,boat6-elephant2.png,
sup_RN50_from_gauss_4_for_20_epoch_to_gauss_2_for_20_epoch_to_gauss_0_for_20_epoch30,1,373,NaN,clock,boat,0,boat6-knife2.png,
sup_RN50_from_gauss_4_for_20_epoch_to_gauss_2_for_20_epoch_to_gauss_0_for_20_epoch30,1,374,NaN,clock,boat,0,boat6-truck3.png,
sup_RN50_from_gauss_4_for_20_epoch_to_gauss_2_for_20_epoch_to_gauss_0_for_20_epoch30,1,375,NaN,clock,boat,0,boat7-boat2.png,
sup_RN50_from_gauss_4_for_20_epoch_to_gauss_2_for_20_epoch_to_gauss_0_for_20_epoch30,1,376,NaN,clock,boat,0,boat7-bottle1.png,
sup_RN50_from_gauss_4_for_20_epoch_to_gauss_2_for_20_epoch_to_gauss_0_for_20_epoch30,1,377,NaN,bottle,boat,0,boat7-cat3.png,
sup_RN50_from_gauss_4_for_20_epoch_to_gauss_2_for_20_epoch_to_gauss_0_for_20_epoch30,1,378,NaN,clock,boat,0,boat7-chair1.png,
sup_RN50_from_gauss_4_for_20_epoch_to_gauss_2_for_20_epoch_to_gauss_0_for_20_epoch30,1,379,NaN,clock,boat,0,boat7-clock3.png,
sup_RN50_from_gauss_4_for_20_epoch_to_gauss_2_for_20_epoch_to_gauss_0_for_20_epoch30,1,380,NaN,bottle,boat,0,boat7-elephant3.png,
sup_RN50_from_gauss_4_for_20_epoch_to_gauss_2_for_20_epoch_to_gauss_0_for_20_epoch30,1,381,NaN,clock,boat,0,boat7-keyboard3.png,
sup_RN50_from_gauss_4_for_20_epoch_to_gauss_2_for_20_epoch_to_gauss_0_for_20_epoch30,1,382,NaN,clock,boat,0,boat7-oven3.png,
sup_RN50_from_gauss_4_for_20_epoch_to_gauss_2_for_20_epoch_to_gauss_0_for_20_epoch30,1,383,NaN,chair,boat,0,boat7-truck2.png,
sup_RN50_from_gauss_4_for_20_epoch_to_gauss_2_for_20_epoch_to_gauss_0_for_20_epoch30,1,384,NaN,bottle,boat,0,boat8-bird2.png,
sup_RN50_from_gauss_4_for_20_epoch_to_gauss_2_for_20_epoch_to_gauss_0_for_20_epoch30,1,385,NaN,clock,boat,0,boat8-bottle1.png,
sup_RN50_from_gauss_4_for_20_epoch_to_gauss_2_for_20_epoch_to_gauss_0_for_20_epoch30,1,386,NaN,bottle,boat,0,boat8-dog3.png,
sup_RN50_from_gauss_4_for_20_epoch_to_gauss_2_for_20_epoch_to_gauss_0_for_20_epoch30,1,387,NaN,bottle,boat,0,boat8-elephant1.png,
sup_RN50_from_gauss_4_for_20_epoch_to_gauss_2_for_20_epoch_to_gauss_0_for_20_epoch30,1,388,NaN,clock,boat,0,boat8-knife1.png,
sup_RN50_from_gauss_4_for_20_epoch_to_gauss_2_for_20_epoch_to_gauss_0_for_20_epoch30,1,389,NaN,clock,boat,0,boat8-oven1.png,
sup_RN50_from_gauss_4_for_20_epoch_to_gauss_2_for_20_epoch_to_gauss_0_for_20_epoch30,1,390,NaN,chair,boat,0,boat8-truck2.png,
sup_RN50_from_gauss_4_for_20_epoch_to_gauss_2_for_20_epoch_to_gauss_0_for_20_epoch30,1,391,NaN,clock,boat,0,boat9-airplane2.png,
sup_RN50_from_gauss_4_for_20_epoch_to_gauss_2_for_20_epoch_to_gauss_0_for_20_epoch30,1,392,NaN,bottle,boat,0,boat9-bear3.png,
sup_RN50_from_gauss_4_for_20_epoch_to_gauss_2_for_20_epoch_to_gauss_0_for_20_epoch30,1,393,NaN,bottle,boat,0,boat9-bird1.png,
sup_RN50_from_gauss_4_for_20_epoch_to_gauss_2_for_20_epoch_to_gauss_0_for_20_epoch30,1,394,NaN,clock,boat,0,boat9-boat3.png,
sup_RN50_from_gauss_4_for_20_epoch_to_gauss_2_for_20_epoch_to_gauss_0_for_20_epoch30,1,395,NaN,bottle,boat,0,boat9-cat3.png,
sup_RN50_from_gauss_4_for_20_epoch_to_gauss_2_for_20_epoch_to_gauss_0_for_20_epoch30,1,396,NaN,clock,boat,0,boat9-chair2.png,
sup_RN50_from_gauss_4_for_20_epoch_to_gauss_2_for_20_epoch_to_gauss_0_for_20_epoch30,1,397,NaN,clock,boat,0,boat9-clock1.png,
sup_RN50_from_gauss_4_for_20_epoch_to_gauss_2_for_20_epoch_to_gauss_0_for_20_epoch30,1,398,NaN,elephant,boat,0,boat9-dog2.png,
sup_RN50_from_gauss_4_for_20_epoch_to_gauss_2_for_20_epoch_to_gauss_0_for_20_epoch30,1,399,NaN,clock,boat,0,boat9-keyboard2.png,
sup_RN50_from_gauss_4_for_20_epoch_to_gauss_2_for_20_epoch_to_gauss_0_for_20_epoch30,1,400,NaN,clock,boat,0,boat9-knife2.png,
sup_RN50_from_gauss_4_for_20_epoch_to_gauss_2_for_20_epoch_to_gauss_0_for_20_epoch30,1,401,NaN,bottle,bottle,0,bottle1-bear1.png,
sup_RN50_from_gauss_4_for_20_epoch_to_gauss_2_for_20_epoch_to_gauss_0_for_20_epoch30,1,402,NaN,clock,bottle,0,bottle1-bird3.png,
sup_RN50_from_gauss_4_for_20_epoch_to_gauss_2_for_20_epoch_to_gauss_0_for_20_epoch30,1,403,NaN,clock,bottle,0,bottle1-car1.png,
sup_RN50_from_gauss_4_for_20_epoch_to_gauss_2_for_20_epoch_to_gauss_0_for_20_epoch30,1,404,NaN,elephant,bottle,0,bottle1-cat3.png,
sup_RN50_from_gauss_4_for_20_epoch_to_gauss_2_for_20_epoch_to_gauss_0_for_20_epoch30,1,405,NaN,clock,bottle,0,bottle1-chair2.png,
sup_RN50_from_gauss_4_for_20_epoch_to_gauss_2_for_20_epoch_to_gauss_0_for_20_epoch30,1,406,NaN,clock,bottle,0,bottle1-clock1.png,
sup_RN50_from_gauss_4_for_20_epoch_to_gauss_2_for_20_epoch_to_gauss_0_for_20_epoch30,1,407,NaN,bottle,bottle,0,bottle1-dog2.png,
sup_RN50_from_gauss_4_for_20_epoch_to_gauss_2_for_20_epoch_to_gauss_0_for_20_epoch30,1,408,NaN,clock,bottle,0,bottle1-keyboard3.png,
sup_RN50_from_gauss_4_for_20_epoch_to_gauss_2_for_20_epoch_to_gauss_0_for_20_epoch30,1,409,NaN,bottle,bottle,0,bottle10-bear2.png,
sup_RN50_from_gauss_4_for_20_epoch_to_gauss_2_for_20_epoch_to_gauss_0_for_20_epoch30,1,410,NaN,bottle,bottle,0,bottle10-boat3.png,
sup_RN50_from_gauss_4_for_20_epoch_to_gauss_2_for_20_epoch_to_gauss_0_for_20_epoch30,1,411,NaN,clock,bottle,0,bottle10-car1.png,
sup_RN50_from_gauss_4_for_20_epoch_to_gauss_2_for_20_epoch_to_gauss_0_for_20_epoch30,1,412,NaN,clock,bottle,0,bottle10-clock2.png,
sup_RN50_from_gauss_4_for_20_epoch_to_gauss_2_for_20_epoch_to_gauss_0_for_20_epoch30,1,413,NaN,bottle,bottle,0,bottle10-dog1.png,
sup_RN50_from_gauss_4_for_20_epoch_to_gauss_2_for_20_epoch_to_gauss_0_for_20_epoch30,1,414,NaN,clock,bottle,0,bottle10-truck3.png,
sup_RN50_from_gauss_4_for_20_epoch_to_gauss_2_for_20_epoch_to_gauss_0_for_20_epoch30,1,415,NaN,clock,bottle,0,bottle2-bottle3.png,
sup_RN50_from_gauss_4_for_20_epoch_to_gauss_2_for_20_epoch_to_gauss_0_for_20_epoch30,1,416,NaN,bottle,bottle,0,bottle2-car2.png,
sup_RN50_from_gauss_4_for_20_epoch_to_gauss_2_for_20_epoch_to_gauss_0_for_20_epoch30,1,417,NaN,clock,bottle,0,bottle2-chair3.png,
sup_RN50_from_gauss_4_for_20_epoch_to_gauss_2_for_20_epoch_to_gauss_0_for_20_epoch30,1,418,NaN,clock,bottle,0,bottle2-clock1.png,
sup_RN50_from_gauss_4_for_20_epoch_to_gauss_2_for_20_epoch_to_gauss_0_for_20_epoch30,1,419,NaN,bottle,bottle,0,bottle2-elephant1.png,
sup_RN50_from_gauss_4_for_20_epoch_to_gauss_2_for_20_epoch_to_gauss_0_for_20_epoch30,1,420,NaN,clock,bottle,0,bottle2-knife3.png,
sup_RN50_from_gauss_4_for_20_epoch_to_gauss_2_for_20_epoch_to_gauss_0_for_20_epoch30,1,421,NaN,clock,bottle,0,bottle3-airplane2.png,
sup_RN50_from_gauss_4_for_20_epoch_to_gauss_2_for_20_epoch_to_gauss_0_for_20_epoch30,1,422,NaN,bottle,bottle,0,bottle3-bear2.png,
sup_RN50_from_gauss_4_for_20_epoch_to_gauss_2_for_20_epoch_to_gauss_0_for_20_epoch30,1,423,NaN,bottle,bottle,0,bottle3-bicycle3.png,
sup_RN50_from_gauss_4_for_20_epoch_to_gauss_2_for_20_epoch_to_gauss_0_for_20_epoch30,1,424,NaN,bottle,bottle,0,bottle3-bird1.png,
sup_RN50_from_gauss_4_for_20_epoch_to_gauss_2_for_20_epoch_to_gauss_0_for_20_epoch30,1,425,NaN,bottle,bottle,0,bottle3-boat3.png,
sup_RN50_from_gauss_4_for_20_epoch_to_gauss_2_for_20_epoch_to_gauss_0_for_20_epoch30,1,426,NaN,clock,bottle,0,bottle3-bottle3.png,
sup_RN50_from_gauss_4_for_20_epoch_to_gauss_2_for_20_epoch_to_gauss_0_for_20_epoch30,1,427,NaN,bottle,bottle,0,bottle3-cat3.png,
sup_RN50_from_gauss_4_for_20_epoch_to_gauss_2_for_20_epoch_to_gauss_0_for_20_epoch30,1,428,NaN,clock,bottle,0,bottle3-chair3.png,
sup_RN50_from_gauss_4_for_20_epoch_to_gauss_2_for_20_epoch_to_gauss_0_for_20_epoch30,1,429,NaN,clock,bottle,0,bottle3-knife3.png,
sup_RN50_from_gauss_4_for_20_epoch_to_gauss_2_for_20_epoch_to_gauss_0_for_20_epoch30,1,430,NaN,clock,bottle,0,bottle4-airplane1.png,
sup_RN50_from_gauss_4_for_20_epoch_to_gauss_2_for_20_epoch_to_gauss_0_for_20_epoch30,1,431,NaN,clock,bottle,0,bottle4-bicycle1.png,
sup_RN50_from_gauss_4_for_20_epoch_to_gauss_2_for_20_epoch_to_gauss_0_for_20_epoch30,1,432,NaN,clock,bottle,0,bottle4-car3.png,
sup_RN50_from_gauss_4_for_20_epoch_to_gauss_2_for_20_epoch_to_gauss_0_for_20_epoch30,1,433,NaN,bottle,bottle,0,bottle4-dog2.png,
sup_RN50_from_gauss_4_for_20_epoch_to_gauss_2_for_20_epoch_to_gauss_0_for_20_epoch30,1,434,NaN,clock,bottle,0,bottle4-oven2.png,
sup_RN50_from_gauss_4_for_20_epoch_to_gauss_2_for_20_epoch_to_gauss_0_for_20_epoch30,1,435,NaN,clock,bottle,0,bottle4-truck1.png,
sup_RN50_from_gauss_4_for_20_epoch_to_gauss_2_for_20_epoch_to_gauss_0_for_20_epoch30,1,436,NaN,clock,bottle,0,bottle5-airplane1.png,
sup_RN50_from_gauss_4_for_20_epoch_to_gauss_2_for_20_epoch_to_gauss_0_for_20_epoch30,1,437,NaN,clock,bottle,0,bottle5-bird3.png,
sup_RN50_from_gauss_4_for_20_epoch_to_gauss_2_for_20_epoch_to_gauss_0_for_20_epoch30,1,438,NaN,clock,bottle,0,bottle5-boat1.png,
sup_RN50_from_gauss_4_for_20_epoch_to_gauss_2_for_20_epoch_to_gauss_0_for_20_epoch30,1,439,NaN,bottle,bottle,0,bottle5-cat1.png,
sup_RN50_from_gauss_4_for_20_epoch_to_gauss_2_for_20_epoch_to_gauss_0_for_20_epoch30,1,440,NaN,clock,bottle,0,bottle5-chair1.png,
sup_RN50_from_gauss_4_for_20_epoch_to_gauss_2_for_20_epoch_to_gauss_0_for_20_epoch30,1,441,NaN,clock,bottle,0,bottle5-clock3.png,
sup_RN50_from_gauss_4_for_20_epoch_to_gauss_2_for_20_epoch_to_gauss_0_for_20_epoch30,1,442,NaN,bottle,bottle,0,bottle5-elephant1.png,
sup_RN50_from_gauss_4_for_20_epoch_to_gauss_2_for_20_epoch_to_gauss_0_for_20_epoch30,1,443,NaN,clock,bottle,0,bottle5-keyboard2.png,
sup_RN50_from_gauss_4_for_20_epoch_to_gauss_2_for_20_epoch_to_gauss_0_for_20_epoch30,1,444,NaN,bottle,bottle,0,bottle5-knife1.png,
sup_RN50_from_gauss_4_for_20_epoch_to_gauss_2_for_20_epoch_to_gauss_0_for_20_epoch30,1,445,NaN,keyboard,bottle,0,bottle5-oven2.png,
sup_RN50_from_gauss_4_for_20_epoch_to_gauss_2_for_20_epoch_to_gauss_0_for_20_epoch30,1,446,NaN,clock,bottle,0,bottle5-truck1.png,
sup_RN50_from_gauss_4_for_20_epoch_to_gauss_2_for_20_epoch_to_gauss_0_for_20_epoch30,1,447,NaN,clock,bottle,0,bottle6-airplane1.png,
sup_RN50_from_gauss_4_for_20_epoch_to_gauss_2_for_20_epoch_to_gauss_0_for_20_epoch30,1,448,NaN,bottle,bottle,0,bottle6-bear2.png,
sup_RN50_from_gauss_4_for_20_epoch_to_gauss_2_for_20_epoch_to_gauss_0_for_20_epoch30,1,449,NaN,bottle,bottle,0,bottle6-bicycle3.png,
sup_RN50_from_gauss_4_for_20_epoch_to_gauss_2_for_20_epoch_to_gauss_0_for_20_epoch30,1,450,NaN,bottle,bottle,0,bottle6-bird1.png,
sup_RN50_from_gauss_4_for_20_epoch_to_gauss_2_for_20_epoch_to_gauss_0_for_20_epoch30,1,451,NaN,bottle,bottle,0,bottle6-boat3.png,
sup_RN50_from_gauss_4_for_20_epoch_to_gauss_2_for_20_epoch_to_gauss_0_for_20_epoch30,1,452,NaN,clock,bottle,0,bottle6-bottle3.png,
sup_RN50_from_gauss_4_for_20_epoch_to_gauss_2_for_20_epoch_to_gauss_0_for_20_epoch30,1,453,NaN,clock,bottle,0,bottle6-chair2.png,
sup_RN50_from_gauss_4_for_20_epoch_to_gauss_2_for_20_epoch_to_gauss_0_for_20_epoch30,1,454,NaN,bottle,bottle,0,bottle6-dog3.png,
sup_RN50_from_gauss_4_for_20_epoch_to_gauss_2_for_20_epoch_to_gauss_0_for_20_epoch30,1,455,NaN,clock,bottle,0,bottle6-knife3.png,
sup_RN50_from_gauss_4_for_20_epoch_to_gauss_2_for_20_epoch_to_gauss_0_for_20_epoch30,1,456,NaN,clock,bottle,0,bottle6-oven3.png,
sup_RN50_from_gauss_4_for_20_epoch_to_gauss_2_for_20_epoch_to_gauss_0_for_20_epoch30,1,457,NaN,clock,bottle,0,bottle7-airplane3.png,
sup_RN50_from_gauss_4_for_20_epoch_to_gauss_2_for_20_epoch_to_gauss_0_for_20_epoch30,1,458,NaN,bottle,bottle,0,bottle7-bear1.png,
sup_RN50_from_gauss_4_for_20_epoch_to_gauss_2_for_20_epoch_to_gauss_0_for_20_epoch30,1,459,NaN,bottle,bottle,0,bottle7-boat3.png,
sup_RN50_from_gauss_4_for_20_epoch_to_gauss_2_for_20_epoch_to_gauss_0_for_20_epoch30,1,460,NaN,bottle,bottle,0,bottle7-cat2.png,
sup_RN50_from_gauss_4_for_20_epoch_to_gauss_2_for_20_epoch_to_gauss_0_for_20_epoch30,1,461,NaN,clock,bottle,0,bottle7-clock1.png,
sup_RN50_from_gauss_4_for_20_epoch_to_gauss_2_for_20_epoch_to_gauss_0_for_20_epoch30,1,462,NaN,elephant,bottle,0,bottle7-elephant2.png,
sup_RN50_from_gauss_4_for_20_epoch_to_gauss_2_for_20_epoch_to_gauss_0_for_20_epoch30,1,463,NaN,clock,bottle,0,bottle7-keyboard2.png,
sup_RN50_from_gauss_4_for_20_epoch_to_gauss_2_for_20_epoch_to_gauss_0_for_20_epoch30,1,464,NaN,clock,bottle,0,bottle7-oven2.png,
sup_RN50_from_gauss_4_for_20_epoch_to_gauss_2_for_20_epoch_to_gauss_0_for_20_epoch30,1,465,NaN,bottle,bottle,0,bottle7-truck2.png,
sup_RN50_from_gauss_4_for_20_epoch_to_gauss_2_for_20_epoch_to_gauss_0_for_20_epoch30,1,466,NaN,clock,bottle,0,bottle8-bicycle1.png,
sup_RN50_from_gauss_4_for_20_epoch_to_gauss_2_for_20_epoch_to_gauss_0_for_20_epoch30,1,467,NaN,clock,bottle,0,bottle8-bird1.png,
sup_RN50_from_gauss_4_for_20_epoch_to_gauss_2_for_20_epoch_to_gauss_0_for_20_epoch30,1,468,NaN,clock,bottle,0,bottle8-bottle3.png,
sup_RN50_from_gauss_4_for_20_epoch_to_gauss_2_for_20_epoch_to_gauss_0_for_20_epoch30,1,469,NaN,bottle,bottle,0,bottle8-dog2.png,
sup_RN50_from_gauss_4_for_20_epoch_to_gauss_2_for_20_epoch_to_gauss_0_for_20_epoch30,1,470,NaN,bottle,bottle,0,bottle8-elephant3.png,
sup_RN50_from_gauss_4_for_20_epoch_to_gauss_2_for_20_epoch_to_gauss_0_for_20_epoch30,1,471,NaN,clock,bottle,0,bottle8-keyboard3.png,
sup_RN50_from_gauss_4_for_20_epoch_to_gauss_2_for_20_epoch_to_gauss_0_for_20_epoch30,1,472,NaN,elephant,bottle,0,bottle8-knife1.png,
sup_RN50_from_gauss_4_for_20_epoch_to_gauss_2_for_20_epoch_to_gauss_0_for_20_epoch30,1,473,NaN,clock,bottle,0,bottle9-bicycle1.png,
sup_RN50_from_gauss_4_for_20_epoch_to_gauss_2_for_20_epoch_to_gauss_0_for_20_epoch30,1,474,NaN,clock,bottle,0,bottle9-bottle1.png,
sup_RN50_from_gauss_4_for_20_epoch_to_gauss_2_for_20_epoch_to_gauss_0_for_20_epoch30,1,475,NaN,clock,bottle,0,bottle9-car3.png,
sup_RN50_from_gauss_4_for_20_epoch_to_gauss_2_for_20_epoch_to_gauss_0_for_20_epoch30,1,476,NaN,bottle,bottle,0,bottle9-cat2.png,
sup_RN50_from_gauss_4_for_20_epoch_to_gauss_2_for_20_epoch_to_gauss_0_for_20_epoch30,1,477,NaN,bottle,bottle,0,bottle9-elephant2.png,
sup_RN50_from_gauss_4_for_20_epoch_to_gauss_2_for_20_epoch_to_gauss_0_for_20_epoch30,1,478,NaN,bottle,bottle,0,bottle9-keyboard1.png,
sup_RN50_from_gauss_4_for_20_epoch_to_gauss_2_for_20_epoch_to_gauss_0_for_20_epoch30,1,479,NaN,keyboard,bottle,0,bottle9-oven2.png,
sup_RN50_from_gauss_4_for_20_epoch_to_gauss_2_for_20_epoch_to_gauss_0_for_20_epoch30,1,480,NaN,clock,bottle,0,bottle9-truck1.png,
sup_RN50_from_gauss_4_for_20_epoch_to_gauss_2_for_20_epoch_to_gauss_0_for_20_epoch30,1,481,NaN,clock,car,0,car1-airplane1.png,
sup_RN50_from_gauss_4_for_20_epoch_to_gauss_2_for_20_epoch_to_gauss_0_for_20_epoch30,1,482,NaN,bottle,car,0,car1-car2.png,
sup_RN50_from_gauss_4_for_20_epoch_to_gauss_2_for_20_epoch_to_gauss_0_for_20_epoch30,1,483,NaN,clock,car,0,car1-chair3.png,
sup_RN50_from_gauss_4_for_20_epoch_to_gauss_2_for_20_epoch_to_gauss_0_for_20_epoch30,1,484,NaN,clock,car,0,car1-clock2.png,
sup_RN50_from_gauss_4_for_20_epoch_to_gauss_2_for_20_epoch_to_gauss_0_for_20_epoch30,1,485,NaN,elephant,car,0,car1-dog2.png,
sup_RN50_from_gauss_4_for_20_epoch_to_gauss_2_for_20_epoch_to_gauss_0_for_20_epoch30,1,486,NaN,clock,car,0,car1-keyboard2.png,
sup_RN50_from_gauss_4_for_20_epoch_to_gauss_2_for_20_epoch_to_gauss_0_for_20_epoch30,1,487,NaN,clock,car,0,car1-oven3.png,
sup_RN50_from_gauss_4_for_20_epoch_to_gauss_2_for_20_epoch_to_gauss_0_for_20_epoch30,1,488,NaN,clock,car,0,car10-bicycle2.png,
sup_RN50_from_gauss_4_for_20_epoch_to_gauss_2_for_20_epoch_to_gauss_0_for_20_epoch30,1,489,NaN,clock,car,0,car10-bottle3.png,
sup_RN50_from_gauss_4_for_20_epoch_to_gauss_2_for_20_epoch_to_gauss_0_for_20_epoch30,1,490,NaN,clock,car,0,car10-car1.png,
sup_RN50_from_gauss_4_for_20_epoch_to_gauss_2_for_20_epoch_to_gauss_0_for_20_epoch30,1,491,NaN,clock,car,0,car10-chair1.png,
sup_RN50_from_gauss_4_for_20_epoch_to_gauss_2_for_20_epoch_to_gauss_0_for_20_epoch30,1,492,NaN,bottle,car,0,car10-dog1.png,
sup_RN50_from_gauss_4_for_20_epoch_to_gauss_2_for_20_epoch_to_gauss_0_for_20_epoch30,1,493,NaN,chair,car,0,car10-elephant2.png,
sup_RN50_from_gauss_4_for_20_epoch_to_gauss_2_for_20_epoch_to_gauss_0_for_20_epoch30,1,494,NaN,keyboard,car,0,car10-keyboard2.png,
sup_RN50_from_gauss_4_for_20_epoch_to_gauss_2_for_20_epoch_to_gauss_0_for_20_epoch30,1,495,NaN,clock,car,0,car2-bird3.png,
sup_RN50_from_gauss_4_for_20_epoch_to_gauss_2_for_20_epoch_to_gauss_0_for_20_epoch30,1,496,NaN,keyboard,car,0,car2-car3.png,
sup_RN50_from_gauss_4_for_20_epoch_to_gauss_2_for_20_epoch_to_gauss_0_for_20_epoch30,1,497,NaN,bottle,car,0,car2-cat3.png,
sup_RN50_from_gauss_4_for_20_epoch_to_gauss_2_for_20_epoch_to_gauss_0_for_20_epoch30,1,498,NaN,clock,car,0,car2-chair1.png,
sup_RN50_from_gauss_4_for_20_epoch_to_gauss_2_for_20_epoch_to_gauss_0_for_20_epoch30,1,499,NaN,chair,car,0,car2-knife3.png,
sup_RN50_from_gauss_4_for_20_epoch_to_gauss_2_for_20_epoch_to_gauss_0_for_20_epoch30,1,500,NaN,clock,car,0,car3-airplane3.png,
sup_RN50_from_gauss_4_for_20_epoch_to_gauss_2_for_20_epoch_to_gauss_0_for_20_epoch30,1,501,NaN,bottle,car,0,car3-bird2.png,
sup_RN50_from_gauss_4_for_20_epoch_to_gauss_2_for_20_epoch_to_gauss_0_for_20_epoch30,1,502,NaN,clock,car,0,car3-boat1.png,
sup_RN50_from_gauss_4_for_20_epoch_to_gauss_2_for_20_epoch_to_gauss_0_for_20_epoch30,1,503,NaN,clock,car,0,car3-bottle3.png,
sup_RN50_from_gauss_4_for_20_epoch_to_gauss_2_for_20_epoch_to_gauss_0_for_20_epoch30,1,504,NaN,elephant,car,0,car3-dog2.png,
sup_RN50_from_gauss_4_for_20_epoch_to_gauss_2_for_20_epoch_to_gauss_0_for_20_epoch30,1,505,NaN,bottle,car,0,car3-elephant3.png,
sup_RN50_from_gauss_4_for_20_epoch_to_gauss_2_for_20_epoch_to_gauss_0_for_20_epoch30,1,506,NaN,clock,car,0,car3-oven3.png,
sup_RN50_from_gauss_4_for_20_epoch_to_gauss_2_for_20_epoch_to_gauss_0_for_20_epoch30,1,507,NaN,clock,car,0,car3-truck1.png,
sup_RN50_from_gauss_4_for_20_epoch_to_gauss_2_for_20_epoch_to_gauss_0_for_20_epoch30,1,508,NaN,bottle,car,0,car4-bear3.png,
sup_RN50_from_gauss_4_for_20_epoch_to_gauss_2_for_20_epoch_to_gauss_0_for_20_epoch30,1,509,NaN,clock,car,0,car4-bicycle3.png,
sup_RN50_from_gauss_4_for_20_epoch_to_gauss_2_for_20_epoch_to_gauss_0_for_20_epoch30,1,510,NaN,keyboard,car,0,car4-bird1.png,
sup_RN50_from_gauss_4_for_20_epoch_to_gauss_2_for_20_epoch_to_gauss_0_for_20_epoch30,1,511,NaN,clock,car,0,car4-boat1.png,
sup_RN50_from_gauss_4_for_20_epoch_to_gauss_2_for_20_epoch_to_gauss_0_for_20_epoch30,1,512,NaN,clock,car,0,car4-bottle1.png,
sup_RN50_from_gauss_4_for_20_epoch_to_gauss_2_for_20_epoch_to_gauss_0_for_20_epoch30,1,513,NaN,clock,car,0,car4-car2.png,
sup_RN50_from_gauss_4_for_20_epoch_to_gauss_2_for_20_epoch_to_gauss_0_for_20_epoch30,1,514,NaN,bottle,car,0,car4-cat3.png,
sup_RN50_from_gauss_4_for_20_epoch_to_gauss_2_for_20_epoch_to_gauss_0_for_20_epoch30,1,515,NaN,bottle,car,0,car4-clock1.png,
sup_RN50_from_gauss_4_for_20_epoch_to_gauss_2_for_20_epoch_to_gauss_0_for_20_epoch30,1,516,NaN,chair,car,0,car4-elephant3.png,
sup_RN50_from_gauss_4_for_20_epoch_to_gauss_2_for_20_epoch_to_gauss_0_for_20_epoch30,1,517,NaN,clock,car,0,car4-oven2.png,
sup_RN50_from_gauss_4_for_20_epoch_to_gauss_2_for_20_epoch_to_gauss_0_for_20_epoch30,1,518,NaN,clock,car,0,car5-airplane3.png,
sup_RN50_from_gauss_4_for_20_epoch_to_gauss_2_for_20_epoch_to_gauss_0_for_20_epoch30,1,519,NaN,keyboard,car,0,car5-bear3.png,
sup_RN50_from_gauss_4_for_20_epoch_to_gauss_2_for_20_epoch_to_gauss_0_for_20_epoch30,1,520,NaN,clock,car,0,car5-bottle1.png,
sup_RN50_from_gauss_4_for_20_epoch_to_gauss_2_for_20_epoch_to_gauss_0_for_20_epoch30,1,521,NaN,bottle,car,0,car5-cat1.png,
sup_RN50_from_gauss_4_for_20_epoch_to_gauss_2_for_20_epoch_to_gauss_0_for_20_epoch30,1,522,NaN,keyboard,car,0,car5-keyboard3.png,
sup_RN50_from_gauss_4_for_20_epoch_to_gauss_2_for_20_epoch_to_gauss_0_for_20_epoch30,1,523,NaN,clock,car,0,car5-knife2.png,
sup_RN50_from_gauss_4_for_20_epoch_to_gauss_2_for_20_epoch_to_gauss_0_for_20_epoch30,1,524,NaN,clock,car,0,car5-oven2.png,
sup_RN50_from_gauss_4_for_20_epoch_to_gauss_2_for_20_epoch_to_gauss_0_for_20_epoch30,1,525,NaN,clock,car,0,car5-truck3.png,
sup_RN50_from_gauss_4_for_20_epoch_to_gauss_2_for_20_epoch_to_gauss_0_for_20_epoch30,1,526,NaN,bottle,car,0,car6-bear1.png,
sup_RN50_from_gauss_4_for_20_epoch_to_gauss_2_for_20_epoch_to_gauss_0_for_20_epoch30,1,527,NaN,bottle,car,0,car6-bicycle3.png,
sup_RN50_from_gauss_4_for_20_epoch_to_gauss_2_for_20_epoch_to_gauss_0_for_20_epoch30,1,528,NaN,clock,car,0,car6-boat1.png,
sup_RN50_from_gauss_4_for_20_epoch_to_gauss_2_for_20_epoch_to_gauss_0_for_20_epoch30,1,529,NaN,clock,car,0,car6-bottle1.png,
sup_RN50_from_gauss_4_for_20_epoch_to_gauss_2_for_20_epoch_to_gauss_0_for_20_epoch30,1,530,NaN,clock,car,0,car6-chair3.png,
sup_RN50_from_gauss_4_for_20_epoch_to_gauss_2_for_20_epoch_to_gauss_0_for_20_epoch30,1,531,NaN,bottle,car,0,car6-elephant3.png,
sup_RN50_from_gauss_4_for_20_epoch_to_gauss_2_for_20_epoch_to_gauss_0_for_20_epoch30,1,532,NaN,clock,car,0,car6-knife1.png,
sup_RN50_from_gauss_4_for_20_epoch_to_gauss_2_for_20_epoch_to_gauss_0_for_20_epoch30,1,533,NaN,bottle,car,0,car6-truck3.png,
sup_RN50_from_gauss_4_for_20_epoch_to_gauss_2_for_20_epoch_to_gauss_0_for_20_epoch30,1,534,NaN,clock,car,0,car7-airplane2.png,
sup_RN50_from_gauss_4_for_20_epoch_to_gauss_2_for_20_epoch_to_gauss_0_for_20_epoch30,1,535,NaN,bottle,car,0,car7-bear1.png,
sup_RN50_from_gauss_4_for_20_epoch_to_gauss_2_for_20_epoch_to_gauss_0_for_20_epoch30,1,536,NaN,clock,car,0,car7-bird3.png,
sup_RN50_from_gauss_4_for_20_epoch_to_gauss_2_for_20_epoch_to_gauss_0_for_20_epoch30,1,537,NaN,clock,car,0,car7-boat3.png,
sup_RN50_from_gauss_4_for_20_epoch_to_gauss_2_for_20_epoch_to_gauss_0_for_20_epoch30,1,538,NaN,clock,car,0,car7-car1.png,
sup_RN50_from_gauss_4_for_20_epoch_to_gauss_2_for_20_epoch_to_gauss_0_for_20_epoch30,1,539,NaN,clock,car,0,car7-clock1.png,
sup_RN50_from_gauss_4_for_20_epoch_to_gauss_2_for_20_epoch_to_gauss_0_for_20_epoch30,1,540,NaN,bottle,car,0,car7-dog3.png,
sup_RN50_from_gauss_4_for_20_epoch_to_gauss_2_for_20_epoch_to_gauss_0_for_20_epoch30,1,541,NaN,chair,car,0,car7-elephant3.png,
sup_RN50_from_gauss_4_for_20_epoch_to_gauss_2_for_20_epoch_to_gauss_0_for_20_epoch30,1,542,NaN,keyboard,car,0,car7-keyboard3.png,
sup_RN50_from_gauss_4_for_20_epoch_to_gauss_2_for_20_epoch_to_gauss_0_for_20_epoch30,1,543,NaN,clock,car,0,car7-oven2.png,
sup_RN50_from_gauss_4_for_20_epoch_to_gauss_2_for_20_epoch_to_gauss_0_for_20_epoch30,1,544,NaN,clock,car,0,car8-airplane3.png,
sup_RN50_from_gauss_4_for_20_epoch_to_gauss_2_for_20_epoch_to_gauss_0_for_20_epoch30,1,545,NaN,bottle,car,0,car8-bear1.png,
sup_RN50_from_gauss_4_for_20_epoch_to_gauss_2_for_20_epoch_to_gauss_0_for_20_epoch30,1,546,NaN,bottle,car,0,car8-bicycle2.png,
sup_RN50_from_gauss_4_for_20_epoch_to_gauss_2_for_20_epoch_to_gauss_0_for_20_epoch30,1,547,NaN,bottle,car,0,car8-boat3.png,
sup_RN50_from_gauss_4_for_20_epoch_to_gauss_2_for_20_epoch_to_gauss_0_for_20_epoch30,1,548,NaN,bottle,car,0,car8-cat1.png,
sup_RN50_from_gauss_4_for_20_epoch_to_gauss_2_for_20_epoch_to_gauss_0_for_20_epoch30,1,549,NaN,clock,car,0,car8-chair1.png,
sup_RN50_from_gauss_4_for_20_epoch_to_gauss_2_for_20_epoch_to_gauss_0_for_20_epoch30,1,550,NaN,clock,car,0,car8-clock2.png,
sup_RN50_from_gauss_4_for_20_epoch_to_gauss_2_for_20_epoch_to_gauss_0_for_20_epoch30,1,551,NaN,bottle,car,0,car8-dog1.png,
sup_RN50_from_gauss_4_for_20_epoch_to_gauss_2_for_20_epoch_to_gauss_0_for_20_epoch30,1,552,NaN,clock,car,0,car8-knife2.png,
sup_RN50_from_gauss_4_for_20_epoch_to_gauss_2_for_20_epoch_to_gauss_0_for_20_epoch30,1,553,NaN,clock,car,0,car8-truck3.png,
sup_RN50_from_gauss_4_for_20_epoch_to_gauss_2_for_20_epoch_to_gauss_0_for_20_epoch30,1,554,NaN,bottle,car,0,car9-bicycle2.png,
sup_RN50_from_gauss_4_for_20_epoch_to_gauss_2_for_20_epoch_to_gauss_0_for_20_epoch30,1,555,NaN,keyboard,car,0,car9-bird1.png,
sup_RN50_from_gauss_4_for_20_epoch_to_gauss_2_for_20_epoch_to_gauss_0_for_20_epoch30,1,556,NaN,bottle,car,0,car9-cat1.png,
sup_RN50_from_gauss_4_for_20_epoch_to_gauss_2_for_20_epoch_to_gauss_0_for_20_epoch30,1,557,NaN,clock,car,0,car9-clock2.png,
sup_RN50_from_gauss_4_for_20_epoch_to_gauss_2_for_20_epoch_to_gauss_0_for_20_epoch30,1,558,NaN,clock,car,0,car9-keyboard2.png,
sup_RN50_from_gauss_4_for_20_epoch_to_gauss_2_for_20_epoch_to_gauss_0_for_20_epoch30,1,559,NaN,chair,car,0,car9-knife1.png,
sup_RN50_from_gauss_4_for_20_epoch_to_gauss_2_for_20_epoch_to_gauss_0_for_20_epoch30,1,560,NaN,clock,car,0,car9-truck3.png,
sup_RN50_from_gauss_4_for_20_epoch_to_gauss_2_for_20_epoch_to_gauss_0_for_20_epoch30,1,561,NaN,clock,cat,0,cat1-airplane1.png,
sup_RN50_from_gauss_4_for_20_epoch_to_gauss_2_for_20_epoch_to_gauss_0_for_20_epoch30,1,562,NaN,keyboard,cat,0,cat1-bird1.png,
sup_RN50_from_gauss_4_for_20_epoch_to_gauss_2_for_20_epoch_to_gauss_0_for_20_epoch30,1,563,NaN,clock,cat,0,cat1-boat1.png,
sup_RN50_from_gauss_4_for_20_epoch_to_gauss_2_for_20_epoch_to_gauss_0_for_20_epoch30,1,564,NaN,clock,cat,0,cat1-car2.png,
sup_RN50_from_gauss_4_for_20_epoch_to_gauss_2_for_20_epoch_to_gauss_0_for_20_epoch30,1,565,NaN,bottle,cat,0,cat1-cat3.png,
sup_RN50_from_gauss_4_for_20_epoch_to_gauss_2_for_20_epoch_to_gauss_0_for_20_epoch30,1,566,NaN,keyboard,cat,0,cat1-chair2.png,
sup_RN50_from_gauss_4_for_20_epoch_to_gauss_2_for_20_epoch_to_gauss_0_for_20_epoch30,1,567,NaN,bottle,cat,0,cat1-dog1.png,
sup_RN50_from_gauss_4_for_20_epoch_to_gauss_2_for_20_epoch_to_gauss_0_for_20_epoch30,1,568,NaN,clock,cat,0,cat1-keyboard3.png,
sup_RN50_from_gauss_4_for_20_epoch_to_gauss_2_for_20_epoch_to_gauss_0_for_20_epoch30,1,569,NaN,clock,cat,0,cat1-oven1.png,
sup_RN50_from_gauss_4_for_20_epoch_to_gauss_2_for_20_epoch_to_gauss_0_for_20_epoch30,1,570,NaN,clock,cat,0,cat10-airplane3.png,
sup_RN50_from_gauss_4_for_20_epoch_to_gauss_2_for_20_epoch_to_gauss_0_for_20_epoch30,1,571,NaN,bottle,cat,0,cat10-bear1.png,
sup_RN50_from_gauss_4_for_20_epoch_to_gauss_2_for_20_epoch_to_gauss_0_for_20_epoch30,1,572,NaN,clock,cat,0,cat10-bicycle1.png,
sup_RN50_from_gauss_4_for_20_epoch_to_gauss_2_for_20_epoch_to_gauss_0_for_20_epoch30,1,573,NaN,bottle,cat,0,cat10-bird2.png,
sup_RN50_from_gauss_4_for_20_epoch_to_gauss_2_for_20_epoch_to_gauss_0_for_20_epoch30,1,574,NaN,clock,cat,0,cat10-bottle1.png,
sup_RN50_from_gauss_4_for_20_epoch_to_gauss_2_for_20_epoch_to_gauss_0_for_20_epoch30,1,575,NaN,clock,cat,0,cat10-clock1.png,
sup_RN50_from_gauss_4_for_20_epoch_to_gauss_2_for_20_epoch_to_gauss_0_for_20_epoch30,1,576,NaN,chair,cat,0,cat10-elephant3.png,
sup_RN50_from_gauss_4_for_20_epoch_to_gauss_2_for_20_epoch_to_gauss_0_for_20_epoch30,1,577,NaN,keyboard,cat,0,cat10-keyboard1.png,
sup_RN50_from_gauss_4_for_20_epoch_to_gauss_2_for_20_epoch_to_gauss_0_for_20_epoch30,1,578,NaN,keyboard,cat,0,cat10-oven2.png,
sup_RN50_from_gauss_4_for_20_epoch_to_gauss_2_for_20_epoch_to_gauss_0_for_20_epoch30,1,579,NaN,clock,cat,0,cat2-boat2.png,
sup_RN50_from_gauss_4_for_20_epoch_to_gauss_2_for_20_epoch_to_gauss_0_for_20_epoch30,1,580,NaN,clock,cat,0,cat2-bottle3.png,
sup_RN50_from_gauss_4_for_20_epoch_to_gauss_2_for_20_epoch_to_gauss_0_for_20_epoch30,1,581,NaN,clock,cat,0,cat2-car3.png,
sup_RN50_from_gauss_4_for_20_epoch_to_gauss_2_for_20_epoch_to_gauss_0_for_20_epoch30,1,582,NaN,bottle,cat,0,cat2-cat1.png,
sup_RN50_from_gauss_4_for_20_epoch_to_gauss_2_for_20_epoch_to_gauss_0_for_20_epoch30,1,583,NaN,bottle,cat,0,cat2-elephant1.png,
sup_RN50_from_gauss_4_for_20_epoch_to_gauss_2_for_20_epoch_to_gauss_0_for_20_epoch30,1,584,NaN,clock,cat,0,cat2-knife3.png,
sup_RN50_from_gauss_4_for_20_epoch_to_gauss_2_for_20_epoch_to_gauss_0_for_20_epoch30,1,585,NaN,clock,cat,0,cat2-truck3.png,
sup_RN50_from_gauss_4_for_20_epoch_to_gauss_2_for_20_epoch_to_gauss_0_for_20_epoch30,1,586,NaN,bottle,cat,0,cat3-bear2.png,
sup_RN50_from_gauss_4_for_20_epoch_to_gauss_2_for_20_epoch_to_gauss_0_for_20_epoch30,1,587,NaN,clock,cat,0,cat3-bicycle1.png,
sup_RN50_from_gauss_4_for_20_epoch_to_gauss_2_for_20_epoch_to_gauss_0_for_20_epoch30,1,588,NaN,bottle,cat,0,cat3-cat1.png,
sup_RN50_from_gauss_4_for_20_epoch_to_gauss_2_for_20_epoch_to_gauss_0_for_20_epoch30,1,589,NaN,chair,cat,0,cat3-elephant2.png,
sup_RN50_from_gauss_4_for_20_epoch_to_gauss_2_for_20_epoch_to_gauss_0_for_20_epoch30,1,590,NaN,keyboard,cat,0,cat3-oven2.png,
sup_RN50_from_gauss_4_for_20_epoch_to_gauss_2_for_20_epoch_to_gauss_0_for_20_epoch30,1,591,NaN,clock,cat,0,cat3-truck3.png,
sup_RN50_from_gauss_4_for_20_epoch_to_gauss_2_for_20_epoch_to_gauss_0_for_20_epoch30,1,592,NaN,clock,cat,0,cat4-airplane1.png,
sup_RN50_from_gauss_4_for_20_epoch_to_gauss_2_for_20_epoch_to_gauss_0_for_20_epoch30,1,593,NaN,bottle,cat,0,cat4-bird2.png,
sup_RN50_from_gauss_4_for_20_epoch_to_gauss_2_for_20_epoch_to_gauss_0_for_20_epoch30,1,594,NaN,clock,cat,0,cat4-car2.png,
sup_RN50_from_gauss_4_for_20_epoch_to_gauss_2_for_20_epoch_to_gauss_0_for_20_epoch30,1,595,NaN,cat,cat,0,cat4-cat3.png,
sup_RN50_from_gauss_4_for_20_epoch_to_gauss_2_for_20_epoch_to_gauss_0_for_20_epoch30,1,596,NaN,clock,cat,0,cat4-chair2.png,
sup_RN50_from_gauss_4_for_20_epoch_to_gauss_2_for_20_epoch_to_gauss_0_for_20_epoch30,1,597,NaN,clock,cat,0,cat4-clock2.png,
sup_RN50_from_gauss_4_for_20_epoch_to_gauss_2_for_20_epoch_to_gauss_0_for_20_epoch30,1,598,NaN,bottle,cat,0,cat4-dog3.png,
sup_RN50_from_gauss_4_for_20_epoch_to_gauss_2_for_20_epoch_to_gauss_0_for_20_epoch30,1,599,NaN,clock,cat,0,cat4-keyboard2.png,
sup_RN50_from_gauss_4_for_20_epoch_to_gauss_2_for_20_epoch_to_gauss_0_for_20_epoch30,1,600,NaN,clock,cat,0,cat4-knife1.png,
sup_RN50_from_gauss_4_for_20_epoch_to_gauss_2_for_20_epoch_to_gauss_0_for_20_epoch30,1,601,NaN,clock,cat,0,cat4-oven1.png,
sup_RN50_from_gauss_4_for_20_epoch_to_gauss_2_for_20_epoch_to_gauss_0_for_20_epoch30,1,602,NaN,clock,cat,0,cat4-truck3.png,
sup_RN50_from_gauss_4_for_20_epoch_to_gauss_2_for_20_epoch_to_gauss_0_for_20_epoch30,1,603,NaN,clock,cat,0,cat5-airplane2.png,
sup_RN50_from_gauss_4_for_20_epoch_to_gauss_2_for_20_epoch_to_gauss_0_for_20_epoch30,1,604,NaN,bottle,cat,0,cat5-bear2.png,
sup_RN50_from_gauss_4_for_20_epoch_to_gauss_2_for_20_epoch_to_gauss_0_for_20_epoch30,1,605,NaN,bottle,cat,0,cat5-bicycle3.png,
sup_RN50_from_gauss_4_for_20_epoch_to_gauss_2_for_20_epoch_to_gauss_0_for_20_epoch30,1,606,NaN,clock,cat,0,cat5-boat1.png,
sup_RN50_from_gauss_4_for_20_epoch_to_gauss_2_for_20_epoch_to_gauss_0_for_20_epoch30,1,607,NaN,clock,cat,0,cat5-bottle1.png,
sup_RN50_from_gauss_4_for_20_epoch_to_gauss_2_for_20_epoch_to_gauss_0_for_20_epoch30,1,608,NaN,clock,cat,0,cat5-car2.png,
sup_RN50_from_gauss_4_for_20_epoch_to_gauss_2_for_20_epoch_to_gauss_0_for_20_epoch30,1,609,NaN,clock,cat,0,cat5-chair3.png,
sup_RN50_from_gauss_4_for_20_epoch_to_gauss_2_for_20_epoch_to_gauss_0_for_20_epoch30,1,610,NaN,bottle,cat,0,cat5-dog3.png,
sup_RN50_from_gauss_4_for_20_epoch_to_gauss_2_for_20_epoch_to_gauss_0_for_20_epoch30,1,611,NaN,elephant,cat,0,cat5-elephant2.png,
sup_RN50_from_gauss_4_for_20_epoch_to_gauss_2_for_20_epoch_to_gauss_0_for_20_epoch30,1,612,NaN,keyboard,cat,0,cat5-keyboard3.png,
sup_RN50_from_gauss_4_for_20_epoch_to_gauss_2_for_20_epoch_to_gauss_0_for_20_epoch30,1,613,NaN,clock,cat,0,cat5-knife2.png,
sup_RN50_from_gauss_4_for_20_epoch_to_gauss_2_for_20_epoch_to_gauss_0_for_20_epoch30,1,614,NaN,bottle,cat,0,cat6-bear1.png,
sup_RN50_from_gauss_4_for_20_epoch_to_gauss_2_for_20_epoch_to_gauss_0_for_20_epoch30,1,615,NaN,clock,cat,0,cat6-chair3.png,
sup_RN50_from_gauss_4_for_20_epoch_to_gauss_2_for_20_epoch_to_gauss_0_for_20_epoch30,1,616,NaN,clock,cat,0,cat6-clock3.png,
sup_RN50_from_gauss_4_for_20_epoch_to_gauss_2_for_20_epoch_to_gauss_0_for_20_epoch30,1,617,NaN,clock,cat,0,cat6-keyboard3.png,
sup_RN50_from_gauss_4_for_20_epoch_to_gauss_2_for_20_epoch_to_gauss_0_for_20_epoch30,1,618,NaN,clock,cat,0,cat6-oven1.png,
sup_RN50_from_gauss_4_for_20_epoch_to_gauss_2_for_20_epoch_to_gauss_0_for_20_epoch30,1,619,NaN,clock,cat,0,cat7-airplane2.png,
sup_RN50_from_gauss_4_for_20_epoch_to_gauss_2_for_20_epoch_to_gauss_0_for_20_epoch30,1,620,NaN,bottle,cat,0,cat7-boat3.png,
sup_RN50_from_gauss_4_for_20_epoch_to_gauss_2_for_20_epoch_to_gauss_0_for_20_epoch30,1,621,NaN,clock,cat,0,cat7-bottle1.png,
sup_RN50_from_gauss_4_for_20_epoch_to_gauss_2_for_20_epoch_to_gauss_0_for_20_epoch30,1,622,NaN,clock,cat,0,cat7-clock3.png,
sup_RN50_from_gauss_4_for_20_epoch_to_gauss_2_for_20_epoch_to_gauss_0_for_20_epoch30,1,623,NaN,bottle,cat,0,cat7-dog3.png,
sup_RN50_from_gauss_4_for_20_epoch_to_gauss_2_for_20_epoch_to_gauss_0_for_20_epoch30,1,624,NaN,bottle,cat,0,cat7-elephant1.png,
sup_RN50_from_gauss_4_for_20_epoch_to_gauss_2_for_20_epoch_to_gauss_0_for_20_epoch30,1,625,NaN,keyboard,cat,0,cat7-knife2.png,
sup_RN50_from_gauss_4_for_20_epoch_to_gauss_2_for_20_epoch_to_gauss_0_for_20_epoch30,1,626,NaN,chair,cat,0,cat7-truck2.png,
sup_RN50_from_gauss_4_for_20_epoch_to_gauss_2_for_20_epoch_to_gauss_0_for_20_epoch30,1,627,NaN,bottle,cat,0,cat8-bear1.png,
sup_RN50_from_gauss_4_for_20_epoch_to_gauss_2_for_20_epoch_to_gauss_0_for_20_epoch30,1,628,NaN,bottle,cat,0,cat8-bicycle3.png,
sup_RN50_from_gauss_4_for_20_epoch_to_gauss_2_for_20_epoch_to_gauss_0_for_20_epoch30,1,629,NaN,bottle,cat,0,cat8-bird2.png,
sup_RN50_from_gauss_4_for_20_epoch_to_gauss_2_for_20_epoch_to_gauss_0_for_20_epoch30,1,630,NaN,bottle,cat,0,cat8-car2.png,
sup_RN50_from_gauss_4_for_20_epoch_to_gauss_2_for_20_epoch_to_gauss_0_for_20_epoch30,1,631,NaN,clock,cat,0,cat9-bicycle1.png,
sup_RN50_from_gauss_4_for_20_epoch_to_gauss_2_for_20_epoch_to_gauss_0_for_20_epoch30,1,632,NaN,clock,cat,0,cat9-bird3.png,
sup_RN50_from_gauss_4_for_20_epoch_to_gauss_2_for_20_epoch_to_gauss_0_for_20_epoch30,1,633,NaN,clock,cat,0,cat9-boat2.png,
sup_RN50_from_gauss_4_for_20_epoch_to_gauss_2_for_20_epoch_to_gauss_0_for_20_epoch30,1,634,NaN,clock,cat,0,cat9-bottle2.png,
sup_RN50_from_gauss_4_for_20_epoch_to_gauss_2_for_20_epoch_to_gauss_0_for_20_epoch30,1,635,NaN,bottle,cat,0,cat9-cat3.png,
sup_RN50_from_gauss_4_for_20_epoch_to_gauss_2_for_20_epoch_to_gauss_0_for_20_epoch30,1,636,NaN,keyboard,cat,0,cat9-chair2.png,
sup_RN50_from_gauss_4_for_20_epoch_to_gauss_2_for_20_epoch_to_gauss_0_for_20_epoch30,1,637,NaN,clock,cat,0,cat9-clock2.png,
sup_RN50_from_gauss_4_for_20_epoch_to_gauss_2_for_20_epoch_to_gauss_0_for_20_epoch30,1,638,NaN,cat,cat,0,cat9-dog2.png,
sup_RN50_from_gauss_4_for_20_epoch_to_gauss_2_for_20_epoch_to_gauss_0_for_20_epoch30,1,639,NaN,keyboard,cat,0,cat9-knife2.png,
sup_RN50_from_gauss_4_for_20_epoch_to_gauss_2_for_20_epoch_to_gauss_0_for_20_epoch30,1,640,NaN,clock,cat,0,cat9-truck1.png,
sup_RN50_from_gauss_4_for_20_epoch_to_gauss_2_for_20_epoch_to_gauss_0_for_20_epoch30,1,641,NaN,clock,chair,0,chair1-airplane2.png,
sup_RN50_from_gauss_4_for_20_epoch_to_gauss_2_for_20_epoch_to_gauss_0_for_20_epoch30,1,642,NaN,bottle,chair,0,chair1-bear1.png,
sup_RN50_from_gauss_4_for_20_epoch_to_gauss_2_for_20_epoch_to_gauss_0_for_20_epoch30,1,643,NaN,clock,chair,0,chair1-cat3.png,
sup_RN50_from_gauss_4_for_20_epoch_to_gauss_2_for_20_epoch_to_gauss_0_for_20_epoch30,1,644,NaN,clock,chair,0,chair1-chair1.png,
sup_RN50_from_gauss_4_for_20_epoch_to_gauss_2_for_20_epoch_to_gauss_0_for_20_epoch30,1,645,NaN,clock,chair,0,chair1-clock2.png,
sup_RN50_from_gauss_4_for_20_epoch_to_gauss_2_for_20_epoch_to_gauss_0_for_20_epoch30,1,646,NaN,bottle,chair,0,chair1-dog1.png,
sup_RN50_from_gauss_4_for_20_epoch_to_gauss_2_for_20_epoch_to_gauss_0_for_20_epoch30,1,647,NaN,bottle,chair,0,chair1-elephant1.png,
sup_RN50_from_gauss_4_for_20_epoch_to_gauss_2_for_20_epoch_to_gauss_0_for_20_epoch30,1,648,NaN,clock,chair,0,chair1-oven3.png,
sup_RN50_from_gauss_4_for_20_epoch_to_gauss_2_for_20_epoch_to_gauss_0_for_20_epoch30,1,649,NaN,clock,chair,0,chair1-truck3.png,
sup_RN50_from_gauss_4_for_20_epoch_to_gauss_2_for_20_epoch_to_gauss_0_for_20_epoch30,1,650,NaN,clock,chair,0,chair10-airplane2.png,
sup_RN50_from_gauss_4_for_20_epoch_to_gauss_2_for_20_epoch_to_gauss_0_for_20_epoch30,1,651,NaN,clock,chair,0,chair10-bicycle1.png,
sup_RN50_from_gauss_4_for_20_epoch_to_gauss_2_for_20_epoch_to_gauss_0_for_20_epoch30,1,652,NaN,clock,chair,0,chair10-bird3.png,
sup_RN50_from_gauss_4_for_20_epoch_to_gauss_2_for_20_epoch_to_gauss_0_for_20_epoch30,1,653,NaN,clock,chair,0,chair10-bottle3.png,
sup_RN50_from_gauss_4_for_20_epoch_to_gauss_2_for_20_epoch_to_gauss_0_for_20_epoch30,1,654,NaN,bottle,chair,0,chair10-car2.png,
sup_RN50_from_gauss_4_for_20_epoch_to_gauss_2_for_20_epoch_to_gauss_0_for_20_epoch30,1,655,NaN,bottle,chair,0,chair10-cat1.png,
sup_RN50_from_gauss_4_for_20_epoch_to_gauss_2_for_20_epoch_to_gauss_0_for_20_epoch30,1,656,NaN,clock,chair,0,chair10-clock1.png,
sup_RN50_from_gauss_4_for_20_epoch_to_gauss_2_for_20_epoch_to_gauss_0_for_20_epoch30,1,657,NaN,bottle,chair,0,chair10-dog1.png,
sup_RN50_from_gauss_4_for_20_epoch_to_gauss_2_for_20_epoch_to_gauss_0_for_20_epoch30,1,658,NaN,clock,chair,0,chair10-oven1.png,
sup_RN50_from_gauss_4_for_20_epoch_to_gauss_2_for_20_epoch_to_gauss_0_for_20_epoch30,1,659,NaN,bottle,chair,0,chair2-bear2.png,
sup_RN50_from_gauss_4_for_20_epoch_to_gauss_2_for_20_epoch_to_gauss_0_for_20_epoch30,1,660,NaN,clock,chair,0,chair2-boat1.png,
sup_RN50_from_gauss_4_for_20_epoch_to_gauss_2_for_20_epoch_to_gauss_0_for_20_epoch30,1,661,NaN,clock,chair,0,chair2-keyboard2.png,
sup_RN50_from_gauss_4_for_20_epoch_to_gauss_2_for_20_epoch_to_gauss_0_for_20_epoch30,1,662,NaN,bottle,chair,0,chair2-knife1.png,
sup_RN50_from_gauss_4_for_20_epoch_to_gauss_2_for_20_epoch_to_gauss_0_for_20_epoch30,1,663,NaN,clock,chair,0,chair3-airplane2.png,
sup_RN50_from_gauss_4_for_20_epoch_to_gauss_2_for_20_epoch_to_gauss_0_for_20_epoch30,1,664,NaN,clock,chair,0,chair3-bicycle3.png,
sup_RN50_from_gauss_4_for_20_epoch_to_gauss_2_for_20_epoch_to_gauss_0_for_20_epoch30,1,665,NaN,clock,chair,0,chair3-bottle3.png,
sup_RN50_from_gauss_4_for_20_epoch_to_gauss_2_for_20_epoch_to_gauss_0_for_20_epoch30,1,666,NaN,clock,chair,0,chair3-car3.png,
sup_RN50_from_gauss_4_for_20_epoch_to_gauss_2_for_20_epoch_to_gauss_0_for_20_epoch30,1,667,NaN,chair,chair,0,chair3-dog2.png,
sup_RN50_from_gauss_4_for_20_epoch_to_gauss_2_for_20_epoch_to_gauss_0_for_20_epoch30,1,668,NaN,clock,chair,0,chair3-knife1.png,
sup_RN50_from_gauss_4_for_20_epoch_to_gauss_2_for_20_epoch_to_gauss_0_for_20_epoch30,1,669,NaN,bottle,chair,0,chair4-bear2.png,
sup_RN50_from_gauss_4_for_20_epoch_to_gauss_2_for_20_epoch_to_gauss_0_for_20_epoch30,1,670,NaN,bottle,chair,0,chair4-cat2.png,
sup_RN50_from_gauss_4_for_20_epoch_to_gauss_2_for_20_epoch_to_gauss_0_for_20_epoch30,1,671,NaN,clock,chair,0,chair4-chair3.png,
sup_RN50_from_gauss_4_for_20_epoch_to_gauss_2_for_20_epoch_to_gauss_0_for_20_epoch30,1,672,NaN,clock,chair,0,chair4-keyboard2.png,
sup_RN50_from_gauss_4_for_20_epoch_to_gauss_2_for_20_epoch_to_gauss_0_for_20_epoch30,1,673,NaN,chair,chair,0,chair4-oven2.png,
sup_RN50_from_gauss_4_for_20_epoch_to_gauss_2_for_20_epoch_to_gauss_0_for_20_epoch30,1,674,NaN,bottle,chair,0,chair4-truck2.png,
sup_RN50_from_gauss_4_for_20_epoch_to_gauss_2_for_20_epoch_to_gauss_0_for_20_epoch30,1,675,NaN,clock,chair,0,chair5-bicycle1.png,
sup_RN50_from_gauss_4_for_20_epoch_to_gauss_2_for_20_epoch_to_gauss_0_for_20_epoch30,1,676,NaN,chair,chair,0,chair5-bird1.png,
sup_RN50_from_gauss_4_for_20_epoch_to_gauss_2_for_20_epoch_to_gauss_0_for_20_epoch30,1,677,NaN,bottle,chair,0,chair5-boat3.png,
sup_RN50_from_gauss_4_for_20_epoch_to_gauss_2_for_20_epoch_to_gauss_0_for_20_epoch30,1,678,NaN,clock,chair,0,chair5-bottle3.png,
sup_RN50_from_gauss_4_for_20_epoch_to_gauss_2_for_20_epoch_to_gauss_0_for_20_epoch30,1,679,NaN,clock,chair,0,chair5-car1.png,
sup_RN50_from_gauss_4_for_20_epoch_to_gauss_2_for_20_epoch_to_gauss_0_for_20_epoch30,1,680,NaN,clock,chair,0,chair5-cat3.png,
sup_RN50_from_gauss_4_for_20_epoch_to_gauss_2_for_20_epoch_to_gauss_0_for_20_epoch30,1,681,NaN,clock,chair,0,chair5-clock2.png,
sup_RN50_from_gauss_4_for_20_epoch_to_gauss_2_for_20_epoch_to_gauss_0_for_20_epoch30,1,682,NaN,clock,chair,0,chair5-keyboard2.png,
sup_RN50_from_gauss_4_for_20_epoch_to_gauss_2_for_20_epoch_to_gauss_0_for_20_epoch30,1,683,NaN,clock,chair,0,chair5-knife3.png,
sup_RN50_from_gauss_4_for_20_epoch_to_gauss_2_for_20_epoch_to_gauss_0_for_20_epoch30,1,684,NaN,clock,chair,0,chair5-oven2.png,
sup_RN50_from_gauss_4_for_20_epoch_to_gauss_2_for_20_epoch_to_gauss_0_for_20_epoch30,1,685,NaN,clock,chair,0,chair5-truck3.png,
sup_RN50_from_gauss_4_for_20_epoch_to_gauss_2_for_20_epoch_to_gauss_0_for_20_epoch30,1,686,NaN,bottle,chair,0,chair6-bird2.png,
sup_RN50_from_gauss_4_for_20_epoch_to_gauss_2_for_20_epoch_to_gauss_0_for_20_epoch30,1,687,NaN,bottle,chair,0,chair6-dog1.png,
sup_RN50_from_gauss_4_for_20_epoch_to_gauss_2_for_20_epoch_to_gauss_0_for_20_epoch30,1,688,NaN,chair,chair,0,chair6-elephant2.png,
sup_RN50_from_gauss_4_for_20_epoch_to_gauss_2_for_20_epoch_to_gauss_0_for_20_epoch30,1,689,NaN,chair,chair,0,chair6-truck2.png,
sup_RN50_from_gauss_4_for_20_epoch_to_gauss_2_for_20_epoch_to_gauss_0_for_20_epoch30,1,690,NaN,clock,chair,0,chair7-airplane1.png,
sup_RN50_from_gauss_4_for_20_epoch_to_gauss_2_for_20_epoch_to_gauss_0_for_20_epoch30,1,691,NaN,chair,chair,0,chair7-bird1.png,
sup_RN50_from_gauss_4_for_20_epoch_to_gauss_2_for_20_epoch_to_gauss_0_for_20_epoch30,1,692,NaN,bottle,chair,0,chair7-boat3.png,
sup_RN50_from_gauss_4_for_20_epoch_to_gauss_2_for_20_epoch_to_gauss_0_for_20_epoch30,1,693,NaN,clock,chair,0,chair7-bottle1.png,
sup_RN50_from_gauss_4_for_20_epoch_to_gauss_2_for_20_epoch_to_gauss_0_for_20_epoch30,1,694,NaN,bottle,chair,0,chair7-car2.png,
sup_RN50_from_gauss_4_for_20_epoch_to_gauss_2_for_20_epoch_to_gauss_0_for_20_epoch30,1,695,NaN,chair,chair,0,chair7-cat1.png,
sup_RN50_from_gauss_4_for_20_epoch_to_gauss_2_for_20_epoch_to_gauss_0_for_20_epoch30,1,696,NaN,clock,chair,0,chair7-chair1.png,
sup_RN50_from_gauss_4_for_20_epoch_to_gauss_2_for_20_epoch_to_gauss_0_for_20_epoch30,1,697,NaN,clock,chair,0,chair7-clock3.png,
sup_RN50_from_gauss_4_for_20_epoch_to_gauss_2_for_20_epoch_to_gauss_0_for_20_epoch30,1,698,NaN,bottle,chair,0,chair7-elephant1.png,
sup_RN50_from_gauss_4_for_20_epoch_to_gauss_2_for_20_epoch_to_gauss_0_for_20_epoch30,1,699,NaN,chair,chair,0,chair7-knife2.png,
sup_RN50_from_gauss_4_for_20_epoch_to_gauss_2_for_20_epoch_to_gauss_0_for_20_epoch30,1,700,NaN,clock,chair,0,chair7-truck3.png,
sup_RN50_from_gauss_4_for_20_epoch_to_gauss_2_for_20_epoch_to_gauss_0_for_20_epoch30,1,701,NaN,clock,chair,0,chair8-airplane1.png,
sup_RN50_from_gauss_4_for_20_epoch_to_gauss_2_for_20_epoch_to_gauss_0_for_20_epoch30,1,702,NaN,bottle,chair,0,chair8-bear1.png,
sup_RN50_from_gauss_4_for_20_epoch_to_gauss_2_for_20_epoch_to_gauss_0_for_20_epoch30,1,703,NaN,bottle,chair,0,chair8-bicycle3.png,
sup_RN50_from_gauss_4_for_20_epoch_to_gauss_2_for_20_epoch_to_gauss_0_for_20_epoch30,1,704,NaN,clock,chair,0,chair8-boat1.png,
sup_RN50_from_gauss_4_for_20_epoch_to_gauss_2_for_20_epoch_to_gauss_0_for_20_epoch30,1,705,NaN,clock,chair,0,chair8-car1.png,
sup_RN50_from_gauss_4_for_20_epoch_to_gauss_2_for_20_epoch_to_gauss_0_for_20_epoch30,1,706,NaN,clock,chair,0,chair8-chair3.png,
sup_RN50_from_gauss_4_for_20_epoch_to_gauss_2_for_20_epoch_to_gauss_0_for_20_epoch30,1,707,NaN,clock,chair,0,chair8-clock3.png,
sup_RN50_from_gauss_4_for_20_epoch_to_gauss_2_for_20_epoch_to_gauss_0_for_20_epoch30,1,708,NaN,elephant,chair,0,chair8-elephant1.png,
sup_RN50_from_gauss_4_for_20_epoch_to_gauss_2_for_20_epoch_to_gauss_0_for_20_epoch30,1,709,NaN,clock,chair,0,chair8-keyboard3.png,
sup_RN50_from_gauss_4_for_20_epoch_to_gauss_2_for_20_epoch_to_gauss_0_for_20_epoch30,1,710,NaN,bottle,chair,0,chair8-knife2.png,
sup_RN50_from_gauss_4_for_20_epoch_to_gauss_2_for_20_epoch_to_gauss_0_for_20_epoch30,1,711,NaN,chair,chair,0,chair8-oven1.png,
sup_RN50_from_gauss_4_for_20_epoch_to_gauss_2_for_20_epoch_to_gauss_0_for_20_epoch30,1,712,NaN,bottle,chair,0,chair9-bear1.png,
sup_RN50_from_gauss_4_for_20_epoch_to_gauss_2_for_20_epoch_to_gauss_0_for_20_epoch30,1,713,NaN,clock,chair,0,chair9-bicycle3.png,
sup_RN50_from_gauss_4_for_20_epoch_to_gauss_2_for_20_epoch_to_gauss_0_for_20_epoch30,1,714,NaN,clock,chair,0,chair9-bird3.png,
sup_RN50_from_gauss_4_for_20_epoch_to_gauss_2_for_20_epoch_to_gauss_0_for_20_epoch30,1,715,NaN,clock,chair,0,chair9-boat2.png,
sup_RN50_from_gauss_4_for_20_epoch_to_gauss_2_for_20_epoch_to_gauss_0_for_20_epoch30,1,716,NaN,clock,chair,0,chair9-bottle3.png,
sup_RN50_from_gauss_4_for_20_epoch_to_gauss_2_for_20_epoch_to_gauss_0_for_20_epoch30,1,717,NaN,clock,chair,0,chair9-chair3.png,
sup_RN50_from_gauss_4_for_20_epoch_to_gauss_2_for_20_epoch_to_gauss_0_for_20_epoch30,1,718,NaN,chair,chair,0,chair9-dog2.png,
sup_RN50_from_gauss_4_for_20_epoch_to_gauss_2_for_20_epoch_to_gauss_0_for_20_epoch30,1,719,NaN,bottle,chair,0,chair9-elephant1.png,
sup_RN50_from_gauss_4_for_20_epoch_to_gauss_2_for_20_epoch_to_gauss_0_for_20_epoch30,1,720,NaN,clock,chair,0,chair9-keyboard2.png,
sup_RN50_from_gauss_4_for_20_epoch_to_gauss_2_for_20_epoch_to_gauss_0_for_20_epoch30,1,721,NaN,bottle,clock,0,clock1-bear1.png,
sup_RN50_from_gauss_4_for_20_epoch_to_gauss_2_for_20_epoch_to_gauss_0_for_20_epoch30,1,722,NaN,bottle,clock,0,clock1-boat3.png,
sup_RN50_from_gauss_4_for_20_epoch_to_gauss_2_for_20_epoch_to_gauss_0_for_20_epoch30,1,723,NaN,clock,clock,0,clock1-car1.png,
sup_RN50_from_gauss_4_for_20_epoch_to_gauss_2_for_20_epoch_to_gauss_0_for_20_epoch30,1,724,NaN,clock,clock,0,clock1-clock2.png,
sup_RN50_from_gauss_4_for_20_epoch_to_gauss_2_for_20_epoch_to_gauss_0_for_20_epoch30,1,725,NaN,elephant,clock,0,clock1-dog2.png,
sup_RN50_from_gauss_4_for_20_epoch_to_gauss_2_for_20_epoch_to_gauss_0_for_20_epoch30,1,726,NaN,elephant,clock,0,clock1-elephant2.png,
sup_RN50_from_gauss_4_for_20_epoch_to_gauss_2_for_20_epoch_to_gauss_0_for_20_epoch30,1,727,NaN,clock,clock,0,clock1-truck3.png,
sup_RN50_from_gauss_4_for_20_epoch_to_gauss_2_for_20_epoch_to_gauss_0_for_20_epoch30,1,728,NaN,clock,clock,0,clock10-airplane1.png,
sup_RN50_from_gauss_4_for_20_epoch_to_gauss_2_for_20_epoch_to_gauss_0_for_20_epoch30,1,729,NaN,clock,clock,0,clock10-bird3.png,
sup_RN50_from_gauss_4_for_20_epoch_to_gauss_2_for_20_epoch_to_gauss_0_for_20_epoch30,1,730,NaN,clock,clock,0,clock10-boat2.png,
sup_RN50_from_gauss_4_for_20_epoch_to_gauss_2_for_20_epoch_to_gauss_0_for_20_epoch30,1,731,NaN,clock,clock,0,clock10-bottle1.png,
sup_RN50_from_gauss_4_for_20_epoch_to_gauss_2_for_20_epoch_to_gauss_0_for_20_epoch30,1,732,NaN,bottle,clock,0,clock10-cat1.png,
sup_RN50_from_gauss_4_for_20_epoch_to_gauss_2_for_20_epoch_to_gauss_0_for_20_epoch30,1,733,NaN,clock,clock,0,clock10-clock3.png,
sup_RN50_from_gauss_4_for_20_epoch_to_gauss_2_for_20_epoch_to_gauss_0_for_20_epoch30,1,734,NaN,bottle,clock,0,clock10-dog3.png,
sup_RN50_from_gauss_4_for_20_epoch_to_gauss_2_for_20_epoch_to_gauss_0_for_20_epoch30,1,735,NaN,clock,clock,0,clock10-knife3.png,
sup_RN50_from_gauss_4_for_20_epoch_to_gauss_2_for_20_epoch_to_gauss_0_for_20_epoch30,1,736,NaN,keyboard,clock,0,clock10-oven2.png,
sup_RN50_from_gauss_4_for_20_epoch_to_gauss_2_for_20_epoch_to_gauss_0_for_20_epoch30,1,737,NaN,clock,clock,0,clock10-truck2.png,
sup_RN50_from_gauss_4_for_20_epoch_to_gauss_2_for_20_epoch_to_gauss_0_for_20_epoch30,1,738,NaN,bottle,clock,0,clock2-bear2.png,
sup_RN50_from_gauss_4_for_20_epoch_to_gauss_2_for_20_epoch_to_gauss_0_for_20_epoch30,1,739,NaN,clock,clock,0,clock2-bicycle1.png,
sup_RN50_from_gauss_4_for_20_epoch_to_gauss_2_for_20_epoch_to_gauss_0_for_20_epoch30,1,740,NaN,clock,clock,0,clock2-bottle3.png,
sup_RN50_from_gauss_4_for_20_epoch_to_gauss_2_for_20_epoch_to_gauss_0_for_20_epoch30,1,741,NaN,clock,clock,0,clock2-clock3.png,
sup_RN50_from_gauss_4_for_20_epoch_to_gauss_2_for_20_epoch_to_gauss_0_for_20_epoch30,1,742,NaN,bottle,clock,0,clock2-dog1.png,
sup_RN50_from_gauss_4_for_20_epoch_to_gauss_2_for_20_epoch_to_gauss_0_for_20_epoch30,1,743,NaN,chair,clock,0,clock2-elephant2.png,
sup_RN50_from_gauss_4_for_20_epoch_to_gauss_2_for_20_epoch_to_gauss_0_for_20_epoch30,1,744,NaN,clock,clock,0,clock2-knife1.png,
sup_RN50_from_gauss_4_for_20_epoch_to_gauss_2_for_20_epoch_to_gauss_0_for_20_epoch30,1,745,NaN,bottle,clock,0,clock3-bear3.png,
sup_RN50_from_gauss_4_for_20_epoch_to_gauss_2_for_20_epoch_to_gauss_0_for_20_epoch30,1,746,NaN,clock,clock,0,clock3-bicycle2.png,
sup_RN50_from_gauss_4_for_20_epoch_to_gauss_2_for_20_epoch_to_gauss_0_for_20_epoch30,1,747,NaN,clock,clock,0,clock3-bird1.png,
sup_RN50_from_gauss_4_for_20_epoch_to_gauss_2_for_20_epoch_to_gauss_0_for_20_epoch30,1,748,NaN,clock,clock,0,clock3-car2.png,
sup_RN50_from_gauss_4_for_20_epoch_to_gauss_2_for_20_epoch_to_gauss_0_for_20_epoch30,1,749,NaN,bottle,clock,0,clock3-cat1.png,
sup_RN50_from_gauss_4_for_20_epoch_to_gauss_2_for_20_epoch_to_gauss_0_for_20_epoch30,1,750,NaN,bottle,clock,0,clock3-dog2.png,
sup_RN50_from_gauss_4_for_20_epoch_to_gauss_2_for_20_epoch_to_gauss_0_for_20_epoch30,1,751,NaN,bottle,clock,0,clock3-elephant3.png,
sup_RN50_from_gauss_4_for_20_epoch_to_gauss_2_for_20_epoch_to_gauss_0_for_20_epoch30,1,752,NaN,clock,clock,0,clock3-keyboard3.png,
sup_RN50_from_gauss_4_for_20_epoch_to_gauss_2_for_20_epoch_to_gauss_0_for_20_epoch30,1,753,NaN,clock,clock,0,clock4-airplane1.png,
sup_RN50_from_gauss_4_for_20_epoch_to_gauss_2_for_20_epoch_to_gauss_0_for_20_epoch30,1,754,NaN,clock,clock,0,clock4-bird3.png,
sup_RN50_from_gauss_4_for_20_epoch_to_gauss_2_for_20_epoch_to_gauss_0_for_20_epoch30,1,755,NaN,clock,clock,0,clock4-boat3.png,
sup_RN50_from_gauss_4_for_20_epoch_to_gauss_2_for_20_epoch_to_gauss_0_for_20_epoch30,1,756,NaN,clock,clock,0,clock4-bottle3.png,
sup_RN50_from_gauss_4_for_20_epoch_to_gauss_2_for_20_epoch_to_gauss_0_for_20_epoch30,1,757,NaN,clock,clock,0,clock4-car2.png,
sup_RN50_from_gauss_4_for_20_epoch_to_gauss_2_for_20_epoch_to_gauss_0_for_20_epoch30,1,758,NaN,clock,clock,0,clock4-chair1.png,
sup_RN50_from_gauss_4_for_20_epoch_to_gauss_2_for_20_epoch_to_gauss_0_for_20_epoch30,1,759,NaN,chair,clock,0,clock4-elephant2.png,
sup_RN50_from_gauss_4_for_20_epoch_to_gauss_2_for_20_epoch_to_gauss_0_for_20_epoch30,1,760,NaN,clock,clock,0,clock4-knife1.png,
sup_RN50_from_gauss_4_for_20_epoch_to_gauss_2_for_20_epoch_to_gauss_0_for_20_epoch30,1,761,NaN,clock,clock,0,clock4-oven1.png,
sup_RN50_from_gauss_4_for_20_epoch_to_gauss_2_for_20_epoch_to_gauss_0_for_20_epoch30,1,762,NaN,clock,clock,0,clock5-airplane1.png,
sup_RN50_from_gauss_4_for_20_epoch_to_gauss_2_for_20_epoch_to_gauss_0_for_20_epoch30,1,763,NaN,clock,clock,0,clock5-bicycle1.png,
sup_RN50_from_gauss_4_for_20_epoch_to_gauss_2_for_20_epoch_to_gauss_0_for_20_epoch30,1,764,NaN,clock,clock,0,clock5-chair3.png,
sup_RN50_from_gauss_4_for_20_epoch_to_gauss_2_for_20_epoch_to_gauss_0_for_20_epoch30,1,765,NaN,clock,clock,0,clock5-clock2.png,
sup_RN50_from_gauss_4_for_20_epoch_to_gauss_2_for_20_epoch_to_gauss_0_for_20_epoch30,1,766,NaN,chair,clock,0,clock5-elephant2.png,
sup_RN50_from_gauss_4_for_20_epoch_to_gauss_2_for_20_epoch_to_gauss_0_for_20_epoch30,1,767,NaN,keyboard,clock,0,clock5-keyboard1.png,
sup_RN50_from_gauss_4_for_20_epoch_to_gauss_2_for_20_epoch_to_gauss_0_for_20_epoch30,1,768,NaN,clock,clock,0,clock5-oven1.png,
sup_RN50_from_gauss_4_for_20_epoch_to_gauss_2_for_20_epoch_to_gauss_0_for_20_epoch30,1,769,NaN,clock,clock,0,clock6-bicycle1.png,
sup_RN50_from_gauss_4_for_20_epoch_to_gauss_2_for_20_epoch_to_gauss_0_for_20_epoch30,1,770,NaN,clock,clock,0,clock6-bird3.png,
sup_RN50_from_gauss_4_for_20_epoch_to_gauss_2_for_20_epoch_to_gauss_0_for_20_epoch30,1,771,NaN,clock,clock,0,clock6-bottle1.png,
sup_RN50_from_gauss_4_for_20_epoch_to_gauss_2_for_20_epoch_to_gauss_0_for_20_epoch30,1,772,NaN,clock,clock,0,clock6-car2.png,
sup_RN50_from_gauss_4_for_20_epoch_to_gauss_2_for_20_epoch_to_gauss_0_for_20_epoch30,1,773,NaN,clock,clock,0,clock6-chair3.png,
sup_RN50_from_gauss_4_for_20_epoch_to_gauss_2_for_20_epoch_to_gauss_0_for_20_epoch30,1,774,NaN,clock,clock,0,clock6-clock2.png,
sup_RN50_from_gauss_4_for_20_epoch_to_gauss_2_for_20_epoch_to_gauss_0_for_20_epoch30,1,775,NaN,clock,clock,0,clock6-knife2.png,
sup_RN50_from_gauss_4_for_20_epoch_to_gauss_2_for_20_epoch_to_gauss_0_for_20_epoch30,1,776,NaN,clock,clock,0,clock6-oven1.png,
sup_RN50_from_gauss_4_for_20_epoch_to_gauss_2_for_20_epoch_to_gauss_0_for_20_epoch30,1,777,NaN,clock,clock,0,clock6-truck3.png,
sup_RN50_from_gauss_4_for_20_epoch_to_gauss_2_for_20_epoch_to_gauss_0_for_20_epoch30,1,778,NaN,keyboard,clock,0,clock7-bear2.png,
